"time{s}","accelerometer_y","accelerometer_z","encoder_L","encoder_R","gyro_x","mux_out[1]","mux_out[2]","mux_out[3]","mux_out[4]","mux_out[5]","mux_out[6]","fallen_down"
0,0.496597186193426,0.125003814813685,0.055297851575375,0.13378906253115,0.00573747978148747,0,0,0,0,0,0,0
0.001,0.515152439954833,0.0161137730033265,0.158874511755741,0.966064453349929,0.0101321451460311,0,0,0,0,-0.059865408565898,0.144810526344956,0
0.002,0.513687551499985,0.0175786614581744,0.158935546912005,0.966247558818722,-0.00567644276253548,4.85239594506259e-005,-4.93281089675372e-005,0,0,-0.22821496494898,0.0992319029264635,0
0.003,0.496597186193426,0.0190435499130222,0.158813476599477,0.966247558818722,-0.000122074037903989,0.000145236031725534,-0.000133340073840783,0,0,-0.326500996363164,-0.0881738285152436,0
0.004,0.511734366893521,0.0205084383678701,0.158813476599477,0.966186523662458,-0.000488296151615955,0.000242592568431721,-7.61587280617756e-005,0,0,-0.306536190094148,-0.0825953157421924,0
0.005,0.484389782403027,0.0200201422162542,0.158813476599477,0.966125488506194,-0.00933866389965514,0.000350541060722035,-7.03239998167114e-005,0,0,-0.287729365244946,-0.0776287349529354,0
0.006,0.537125766777551,-0.0209967345194861,0.158874511755741,0.966003418193665,0.00122074037903989,0.00046642603165293,-6.17072756593994e-005,0,0,-0.270186543971068,-0.0730169698585694,0
0.007,0.476088747825556,0.0166020691549425,0.15856933597442,0.966247558818722,0.0100711081270791,0.000590442759379761,2.24592756697098e-005,0,0,-0.253781119066604,-0.0687548663303911,0
0.008,0.531754509109775,0.0727561265907773,0.158813476599477,0.966125488506194,0.00958281197546312,0.000711251414897331,1.05527754272131e-005,0,0,-0.23807391105367,-0.0644512321632957,0
0.009,0.494644001586962,0.087405011139256,0.158813476599477,0.966064453349929,0.00225836970122379,0.000821984059217657,-7.66968492594573e-005,0,0,-0.223534183157386,-0.0604221932065764,0
0.01,0.56984160893582,-0.00292977690969573,0.158752441443212,0.966125488506194,0.00628681295205542,0.000952896959639684,-0.000154266281413838,0,0,-0.210198630208304,-0.056957038460661,0
0.011,0.514175847651601,0.0522476882229072,0.158752441443212,0.966125488506194,-0.00158696249275185,0.00113037524955663,-0.000163989828403121,0,0,-0.197340068681221,-0.0534997239053815,0
0.012,0.50099185155797,0.0751976073488571,0.158996582068269,0.966003418193665,0.00274666585283975,0.00132738476266398,-0.000207737056617247,0,0,-0.185258985127731,-0.0501811145160311,0
0.013,0.472182378612629,0.0605487228003784,0.158874511755741,0.966186523662458,0.0021973326822718,0.00152581563087632,-0.000181040607364731,0,0,-0.17423884665575,-0.0472575230790494,0
0.014,0.507339701528977,0.00683614612262337,0.158935546912005,0.966186523662458,0.00262459181493576,0.00176012396721783,-0.000193280010773178,0,0,-0.163763563245809,-0.0443194936801303,0
0.015,0.50587481307413,0.010742515335551,0.158752441443212,0.966064453349929,0.0133671071504868,0.00203055299121842,-0.000200027485734896,0,0,-0.153727986372062,-0.0414280830752872,0
0.016,0.492690816980499,0.0185552537614063,0.158752441443212,0.966003418193665,-0.00140385143589587,0.00230814983740206,-0.000210024374157945,0,0,-0.144254388553225,-0.0390598455196887,0
0.017,0.529313028351695,0.0209967345194861,0.159179687537062,0.966125488506194,0.00909451582384716,0.00257116155997574,-0.000311752152091386,0,0,-0.135285653175485,-0.0368957599096207,0
0.018,0.505386516922513,0.0180669576097903,0.158691406286948,0.965942383037401,0.00128177739799188,0.00281937082212075,-0.000280094542992817,0,0,-0.12751743614011,-0.0345927269398479,0
0.019,0.517593920712912,0.0244148075807978,0.158996582068269,0.966125488506194,-0.00384533219397565,0.00306539416562004,-0.000340685984205994,0,0,-0.119697865025749,-0.032566082693465,0
0.028,0.513199255348369,0.0229499191259499,0.158996582068269,0.965942383037401,-0.00811792352061525,0.00506828988964407,-0.000492400673181248,0,0,-0.0680045351186577,-0.0185389790439652,0
0.037,0.510757774590289,0.0190435499130222,0.158935546912005,0.965881347881137,-0.000854518265327921,0.00683834249392832,-0.000379474822172695,0,0,-0.0390670147809584,-0.0108878124320936,0
0.046,0.515152439954833,0.0180669576097903,0.158996582068269,0.965881347881137,0.00695822016052736,0.00837105452608856,-0.000645170129799662,0,0,-0.0223014024254225,-0.00644121395837795,0
0.054,0.513199255348369,0.0229499191259499,0.159362793005855,0.965698242412344,0.00958281197546312,0.00947464573036669,-0.000550880923672122,0,0,-0.0137713191746885,-0.00397255769307453,0
0.062,0.514175847651601,0.00683614612262337,0.15930175784959,0.965881347881137,0.00726340525528733,0.0104106893048288,-0.000739441061794048,0,0,-0.00897587045817344,-0.00244697193407336,0
0.07,0.516129032258065,0.00292977690969573,0.159362793005855,0.965820312724873,0.00799584948271126,0.0110134106050382,-0.000812134286495426,0,0,-0.00540184290433318,-0.00192684690556018,0
0.0780000000000001,0.512710959196753,0.00488296151615955,0.159362793005855,0.965698242412344,0.00494399853511155,0.0113702058092082,-0.000662793643955842,0,0,-0.00338582323522637,-0.00113185603859906,0
0.0850000000000001,0.51661732840968,0.00585955381939146,0.159484863318383,0.965576172099816,0.00732444227423933,0.0115281592444606,-0.000336346823598551,0,0,-0.00209985725501287,-0.000915727685644992,0
0.0920000000000001,0.511734366893521,0.00683614612262337,0.159179687537062,0.965515136943552,0.0116580706198309,0.011640475385971,-0.000388207179371448,0,0,-0.00164328540473169,-0.00043480257635245,0
0.0990000000000001,0.51661732840968,0.00732444227423933,0.15930175784959,0.96563720725608,0.00518814661091952,0.0117375726034286,-0.000164933969973274,0,0,-0.000833502628336811,-0.000338698269148356,0
0.106,0.516129032258065,0.00537125766777551,0.15930175784959,0.965881347881137,-0.00183111056855983,0.0119038231417347,-0.00020386293857762,0,0,-0.00040231627751975,-9.94910173547351e-005,0
0.112,0.511246070741905,0.0175786614581744,0.159362793005855,0.965820312724873,-0.0087282937101352,0.0121065138479494,7.09329919077104e-006,0,0,0.000124764887190501,0.000173680234550486,0
0.118,0.512222663045137,0.0151371807000946,0.159118652380798,0.965759277568608,-0.00170903653065584,0.0124628109121009,0.000128126707901994,0,0,0.000173900464009556,9.14166833718961e-005,0
0.124,0.511246070741905,0.0156254768517106,0.159057617224533,0.965881347881137,0.000366222113711966,0.0128872272732636,0.0002171974899123,0,0,0.000454535620515599,0.000314531077912154,0
0.13,0.511734366893521,0.0161137730033265,0.159179687537062,0.965881347881137,-0.000610370189519944,0.0134644800206674,0.000332032322554867,0,0,0.000197541155816065,0.000182468100201509,0
0.136,0.517105624561296,0.0146488845484787,0.15930175784959,0.965698242412344,-0.00915555284279916,0.0141539597846955,0.000152809904416669,0,0,0.00021562200231806,0.000217977155347312,0
0.141,0.515640736106449,0.0229499191259499,0.159240722693326,0.965759277568608,0.0135502182073428,0.0147262130669501,0.000161291519328276,0,0,0.000309479631576889,4.51903271946663e-005,0
0.146,0.51661732840968,0.0170903653065584,0.159240722693326,0.965698242412344,-0.00201422162541581,0.0153229860601663,8.93839239765231e-005,0,0,0.00016588812937598,0.000237361537478986,0
0.151,0.510269478438673,0.0126956999420148,0.15930175784959,0.965820312724873,0.00286873989074374,0.0159860620114218,0.000213306176692004,0,0,2.9933760242262e-005,-7.26645094530875e-005,0
0.156,0.506363109225745,0.0200201422162542,0.159179687537062,0.965759277568608,-0.0121463667714469,0.0165877641372994,0.000182934300855651,0,0,-0.000372639315269987,-2.89869680290801e-005,0
0.161,0.513687551499985,0.0122074037903989,0.159484863318383,0.965759277568608,-0.00488296151615955,0.0172079546791839,0.000340231676089791,0,0,-3.7750311157876e-005,-1.50994421410011e-005,0
0.165,0.51661732840968,0.0175786614581744,0.159667968787176,0.965820312724873,-0.000549333170567949,0.0176907585372896,0.00040344301543702,0,0,2.85828233672175e-005,8.31807612778037e-005,0
0.169,0.517593920712912,0.0117191076387829,0.159606933630911,0.965698242412344,-0.011413922544023,0.018121798977219,0.000231158885907675,0,0,-0.000468979570140249,0.00014760981197231,0
0.173,0.518082216864528,0.0117191076387829,0.159423828162119,0.965698242412344,-0.00402844325083163,0.0185019508163435,0.000235727625115237,0,0,8.20510052278781e-005,0.000116384584086769,0
0.177,0.512710959196753,0.0166020691549425,0.159362793005855,0.965759277568608,-0.00195318460646382,0.018901864776785,0.000376484608158892,0,0,-4.2531300679469e-005,8.60383670586212e-005,0
0.181,0.51905880916776,0.0117191076387829,0.159545898474647,0.96563720725608,-0.00720236823633534,0.0192831322443959,0.000176500172340328,0,0,-0.000450311935221451,0.000325535771176233,0
0.185,0.511734366893521,0.0190435499130222,0.159545898474647,0.96563720725608,-0.00671407208471938,0.0196034981139077,0.000247562396583517,0,0,-0.000176797116412058,0.000246042825738933,0
0.189,0.51905880916776,0.0146488845484787,0.159606933630911,0.965881347881137,-0.0120853297524949,0.0199361134382172,0.000271658546343642,0,0,0.000328995850405399,-8.00910731773415e-005,0
0.193,0.517105624561296,0.0146488845484787,0.159423828162119,0.965759277568608,-0.00994903408917508,0.0202347026705415,0.000304518401826423,0,0,5.01833888829094e-005,0.00041439483885812,0
0.196,0.518082216864528,0.0151371807000946,0.159484863318383,0.96563720725608,-0.0032959990234077,0.0204784421632413,0.000414399035876791,0,0,4.72920605691264e-005,5.40657918111153e-005,0
0.199,0.510757774590289,0.0185552537614063,0.15930175784959,0.965881347881137,-0.00463881344035157,0.020710267138574,7.32014971630473e-005,0,0,-5.60173017263751e-005,7.74567647217787e-005,0
0.202,0.514175847651601,0.0170903653065584,0.159484863318383,0.965759277568608,-0.00402844325083163,0.0209193105566426,0.000123933604600819,0,0,0.000106373397027722,4.59010211025114e-005,0
0.205,0.51661732840968,0.0117191076387829,0.15930175784959,0.965820312724873,-0.00860621967223121,0.0211246918333666,0.000200397250505844,0,0,0.000256966172204259,0.000261124058586409,0
0.208,0.513687551499985,0.0141605883968627,0.159362793005855,0.965820312724873,-0.00634784997100742,0.0213400185621291,0.000250475115848086,0,0,-0.000215180274153196,0.000184175454133093,0
0.211,0.518570513016144,0.0146488845484787,0.159423828162119,0.965820312724873,0.000854518265327921,0.0215479794637049,0.000409517704079462,0,0,-0.000186235944168532,0.000225676755834891,0
0.214,0.51661732840968,0.0180669576097903,0.159545898474647,0.965759277568608,0.00238044373912778,0.0217992047730301,0.00029923772505963,0,0,3.63825044919902e-005,-3.41108842792988e-005,0
0.217,0.512710959196753,0.0229499191259499,0.159423828162119,0.965454101787287,0.0087282937101352,0.0220199399711599,0.000109121130936065,0,0,0.000104903195779761,9.29579671825346e-005,0
0.22,0.518570513016144,0.0141605883968627,0.159423828162119,0.965820312724873,-0.0130008850367748,0.0222176584724311,-0.000106122861534971,0,0,-0.000106226531902846,-0.000247617025827493,0
0.223,0.515152439954833,0.0190435499130222,0.159484863318383,0.965576172099816,0.00274666585283975,0.0224225194575684,2.49896604537957e-005,0,0,-5.6625941776505e-005,7.14069026075174e-005,0
0.226,0.513687551499985,0.0170903653065584,0.159362793005855,0.965698242412344,0.00555436872463149,0.0226515153790433,-6.2855711246541e-005,0,0,0.000203476475567506,-0.000133084373711365,0
0.228,0.515640736106449,0.0195318460646382,0.159484863318383,0.965698242412344,0.011047700430311,0.022799530852749,-0.000126565142900853,0,0,2.5726211398822e-005,-6.08029545372588e-005,0
0.23,0.516129032258065,0.0244148075807978,0.159545898474647,0.965759277568608,-0.000366222113711966,0.0229474068106758,-0.000150570167277885,0,0,3.49140830653784e-005,-0.000115510296282379,0
0.232,0.518082216864528,0.0209967345194861,0.159423828162119,0.965698242412344,-0.00256355479598376,0.0231094507030508,1.10667959793648e-005,0,0,-0.00041045388230727,4.34453443554003e-005,0
0.234,0.510269478438673,0.0239265114291818,0.159484863318383,0.965759277568608,-0.00811792352061525,0.0233002790563667,-1.4468722231406e-005,0,0,9.61649173686309e-005,-0.000218217017061966,0
0.236,0.515640736106449,0.0224616229743339,0.159423828162119,0.965515136943552,-0.011047700430311,0.0234918932924261,7.92171535030894e-005,0,0,-0.000139882911557373,-2.87750942563152e-005,0
0.238,0.512710959196753,0.032227546006653,0.159362793005855,0.965576172099816,0.0116580706198309,0.0236930504398001,0.000207835979623586,0,0,1.32335793428348e-005,-0.000198995418772093,0
0.24,0.510757774590289,0.0307626575518052,0.159423828162119,0.965759277568608,0.00390636921292764,0.0239044391002482,-8.29346044094772e-005,0,0,2.53538470899944e-006,-0.000184624041298794,0
0.242,0.514175847651601,0.021485030671102,0.159606933630911,0.96563720725608,0.00134281441694388,0.0241088063607707,-0.000151178590207429,0,0,-0.000201937797581767,-5.27521236637644e-005,0
0.244,0.515640736106449,0.0239265114291818,0.159423828162119,0.965515136943552,0.00592059083834346,0.0243310200413611,-9.80939015183961e-005,0,0,3.55668401815849e-005,-0.000167230334744416,0
0.246,0.516129032258065,0.0224616229743339,0.159606933630911,0.96563720725608,0.00427259132663961,0.0245616673945798,-0.000144433653216494,0,0,-0.000141771138967983,-0.000300489474598262,0
0.248,0.516129032258065,0.0258796960356456,0.159912109412232,0.965759277568608,-0.00122074037903989,0.0247770529623571,-0.000223094682619335,0,0,-0.00047118833280139,-0.000102744498427888,0
0.25,0.513199255348369,0.0205084383678701,0.159545898474647,0.965515136943552,-0.000366222113711966,0.0249773420193468,-0.000218395444913888,0,0,-0.000493020032095064,-0.00019627142651223,0
0.252,0.515152439954833,0.0195318460646382,0.159667968787176,0.965576172099816,0.0021362956633198,0.0251621432586326,-0.000353415985670647,0,0,0.000245696727141823,-0.000509435227408973,0
0.254,0.508316293832209,0.0288094729453414,0.159423828162119,0.965515136943552,0.00671407208471938,0.0253298946257818,-0.000308602906493111,0,0,-0.000385163244988179,-0.000270363772576338,0
0.256,0.512710959196753,0.0239265114291818,0.159790039099704,0.965515136943552,0.00415051728873562,0.0254938029771927,-0.000406960828994842,0,0,-0.000198780104861812,-0.000407753525003477,0
0.258,0.514664143803217,0.0161137730033265,0.159790039099704,0.96563720725608,0.0126956999420148,0.0256528458103998,-0.000448684241829968,0,0,-0.000836049314244739,-0.000515948857838559,0
0.26,0.512222663045137,0.0175786614581744,0.159606933630911,0.96563720725608,0.011413922544023,0.0258038449740214,-0.000531256128268456,0,0,-0.000601464335173313,-0.000327225138823966,0
0.262,0.507339701528977,0.0190435499130222,0.159851074255968,0.965515136943552,0.0175786614581744,0.0259323193153339,-0.000692100192038556,0,0,-0.000618074355799129,-9.98871748834499e-005,0
0.264,0.511734366893521,0.0161137730033265,0.15972900394344,0.965332031474759,0.00396740623187964,0.0260321393399014,-0.000888827435471767,0,0,-0.000847098340503703,-0.000398171434235997,0
0.265,0.51905880916776,0.0141605883968627,0.160034179724761,0.965393066631023,0.0169072542497024,0.0260675250152994,-0.000747443720621848,0,0,-0.000651622931940832,-0.00056037937544707,0
0.266,0.512222663045137,0.0180669576097903,0.159545898474647,0.965454101787287,0.00775170140690329,0.0261070840974529,-0.000734590309172235,0,0,-0.000772646636344439,-0.000753028579006263,0
0.267,0.515152439954833,0.0166020691549425,0.159851074255968,0.96563720725608,0.0202642902920621,0.0261430434428868,-0.000833795130117592,0,0,-0.000561454642961389,-0.000609098798617141,0
0.268,0.51661732840968,0.0180669576097903,0.159790039099704,0.965393066631023,0.00250251777703177,0.0261693069560696,-0.000848051660827907,0,0,-0.000367945752617921,-0.000346620399855673,0
0.269,0.513687551499985,0.0180669576097903,0.159606933630911,0.965515136943552,0.00152592547379986,0.0261925072161277,-0.000968989686213884,0,0,-0.000640584384248804,-0.000422356773277324,0
0.27,0.509292886135441,0.021973326822718,0.160034179724761,0.965393066631023,0.0249641407513657,0.026205947267604,-0.000929621720405321,0,0,-0.000339801707541987,-0.000531270812857183,0
0.271,0.516129032258065,0.0190435499130222,0.160095214881025,0.965393066631023,0.0166631061738945,0.0262205794157511,-0.000884331042973362,0,0,-0.000619526278540728,-0.000535062981873348,0
0.272,0.51661732840968,0.0141605883968627,0.159851074255968,0.965515136943552,0.0065309610278634,0.0262384556026998,-0.00104339663553489,0,0,-0.00116893846128126,-0.000693217789960021,0
0.273,0.514664143803217,0.0190435499130222,0.15972900394344,0.965454101787287,-0.00207525864436781,0.0262468738770174,-0.00112109951428788,0,0,-0.000930150529450253,-0.000549476955659032,0
0.274,0.517593920712912,0.0175786614581744,0.159973144568497,0.965454101787287,0.00390636921292764,0.0262479257582804,-0.00110680883581161,0,0,-0.000479433010172655,-0.00045228492583203,0
0.275,0.513687551499985,0.0146488845484787,0.159912109412232,0.965454101787287,0.00500503555406354,0.0262476757255813,-0.00101942390369434,0,0,-0.000580761132550934,-0.000489199737649492,0
0.276,0.515640736106449,0.0156254768517106,0.15972900394344,0.965332031474759,0.00469985045930357,0.02625220548695,-0.000988956706226804,0,0,-0.000752604819266163,-0.000468419809296881,0
0.277,0.511734366893521,0.0175786614581744,0.159851074255968,0.965515136943552,0.0243537705618458,0.0262562475713046,-0.000969849627334221,0,0,-0.000452642963971642,-0.000582172666808391,0
0.278,0.51661732840968,0.0126956999420148,0.160034179724761,0.965698242412344,0.0162968840601825,0.0262585140693073,-0.000949319246031867,0,0,-0.00039808963351649,-0.000519728638674755,0
0.279,0.509781182287057,0.0209967345194861,0.160034179724761,0.965393066631023,-0.000732444227423933,0.0262604397367358,-0.00109905383820066,0,0,-0.00076039778175652,-0.000147888465314979,0
0.28,0.518082216864528,0.0043946653645436,0.160034179724761,0.965454101787287,-0.00445570238349559,0.0262501781721951,-0.00117011106907332,0,0,-0.000930552075770766,-0.000289288517028888,0
0.281,0.517105624561296,0.0141605883968627,0.159790039099704,0.965332031474759,0.00244148075807978,0.0262343178881591,-0.00109029361690351,0,0,-0.000860923473489165,-0.000522992920388488,0
0.282,0.512222663045137,0.0117191076387829,0.159912109412232,0.965393066631023,0.0209356975005341,0.0262193923269193,-0.000983480449043767,0,0,-0.000536105807258827,-0.000549096921884859,0
0.283,0.508316293832209,0.0190435499130222,0.160156250037289,0.965332031474759,0.00592059083834346,0.0262046653366866,-0.000942677234637503,0,0,-0.000401314124562508,-0.000611715202982499,0
0.284,0.512222663045137,0.0146488845484787,0.159973144568497,0.965454101787287,0.011413922544023,0.0261891911953341,-0.00106344219815648,0,0,-0.00080829682243355,-0.000609477961714357,0
0.285,0.515640736106449,0.0185552537614063,0.159790039099704,0.965332031474759,-0.00347911008026368,0.0261648998048829,-0.00104752656452913,0,0,-0.000845661788314928,-0.000526820347906907,0
0.286,0.51661732840968,0.0161137730033265,0.159790039099704,0.965270996318495,0.0148319956053346,0.0261417384020854,-0.00107983998015623,0,0,-0.000404064883685691,-0.000501049358450566,0
0.287,0.515640736106449,0.0185552537614063,0.159912109412232,0.965332031474759,0.00555436872463149,0.0261163451849054,-0.000982079907531472,0,0,-0.000192653581411558,-0.00068013266500297,0
0.288,0.516129032258065,0.0185552537614063,0.160156250037289,0.965332031474759,0.0114749595629749,0.0260975335549799,-0.00104789241642894,0,0,-0.000337923551225642,-0.000663572118590707,0
0.289,0.513199255348369,0.0146488845484787,0.159973144568497,0.965332031474759,0.00616473891415143,0.0260748500048212,-0.00102980520170234,0,0,-0.000733425506380208,-0.000576766362551541,0
0.29,0.516129032258065,0.0126956999420148,0.160095214881025,0.965515136943552,0.010559404278695,0.0260545761298982,-0.00106375685051148,0,0,-0.000775290112575212,-0.000562107220147663,0
0.291,0.514175847651601,0.0170903653065584,0.160095214881025,0.965270996318495,-0.0010376293221839,0.0260318556117963,-0.0010499205151603,0,0,-0.000680969786804768,-0.000348639343575001,0
0.292,0.518082216864528,0.0131839960936308,0.160034179724761,0.965393066631023,0.00231940672017579,0.0260075361345193,-0.00107473677479962,0,0,-0.000779683686522519,-0.000401531048731309,0
0.293,0.51661732840968,0.0156254768517106,0.160095214881025,0.965270996318495,0.0054322946867275,0.0259802578204509,-0.00099828803069106,0,0,-0.000661783100542931,-0.000504868143521477,0
0.294,0.512710959196753,0.0136722922452467,0.159912109412232,0.965270996318495,0.00518814661091952,0.0259567406617826,-0.000955504894257032,0,0,-0.000626855453627821,-0.000479499450730192,0
0.295,0.513687551499985,0.00683614612262337,0.160156250037289,0.965270996318495,0.00958281197546312,0.0259343123027457,-0.00094217302451585,0,0,-0.000466186891613218,-0.000592076006259039,0
0.296,0.51661732840968,0.0117191076387829,0.160217285193553,0.965270996318495,0.00335703604235969,0.0259114449808687,-0.000927579752388714,0,0,-0.000519667165890644,-0.000571820241332582,0
0.297,0.515152439954833,0.0117191076387829,0.160034179724761,0.965332031474759,0.00598162785729545,0.0258849800527261,-0.000951686634992374,0,0,-0.000831314702050664,-0.000549955118125677,0
0.298,0.518082216864528,0.0180669576097903,0.159912109412232,0.96520996116223,0.00903347880489517,0.0258519898511046,-0.000920752591589318,0,0,-0.00065602916756638,-0.000457876581584066,0
0.299,0.513199255348369,0.0161137730033265,0.160278320349818,0.965393066631023,0.010925626392407,0.0258181957219144,-0.000914327177473343,0,0,-0.000301680615086922,-0.000512001813896743,0
0.3,0.51905880916776,0.0122074037903989,0.160034179724761,0.96520996116223,0.0065309610278634,0.0257846279643918,-0.000934543839866826,0,0,-0.00057083194973527,-0.000438005194596799,0
0.301,0.514664143803217,0.0117191076387829,0.159912109412232,0.965087890849702,0.00476088747825556,0.0257513169210049,-0.000969758032516153,0,0,-0.000687556689174441,-0.000430687243570229,0
0.302,0.515152439954833,0.0122074037903989,0.160156250037289,0.96520996116223,-0.00170903653065584,0.0257149915013358,-0.000964976419786228,0,0,-0.00025927353594278,-0.000744790387469232,0
0.303,0.514175847651601,0.0126956999420148,0.160034179724761,0.965270996318495,0.010620441297647,0.0256765786295742,-0.000945276998261195,0,0,-0.000373205684352444,-0.000697011555015177,0
0.304,0.517105624561296,0.0151371807000946,0.159912109412232,0.965148926005966,-0.00488296151615955,0.0256372394194131,-0.000871190013527373,0,0,-0.000488994017852135,-0.000462738668982525,0
0.305,0.514175847651601,0.0185552537614063,0.160034179724761,0.96520996116223,-0.00402844325083163,0.0256009671984886,-0.000907761008901417,0,0,-0.000196529302658612,-0.000502208974000837,0
0.306,0.51905880916776,0.0122074037903989,0.160034179724761,0.965087890849702,0.00268562883388775,0.0255619227950555,-0.000808743333231744,0,0,-0.000164185397756451,-0.000517310776871813,0
0.307,0.516129032258065,0.0117191076387829,0.160095214881025,0.96520996116223,0.00396740623187964,0.0255310264431706,-0.000723293861244721,0,0,-0.000277416595678707,-0.000542963144128077,0
0.308,0.516129032258065,0.00878933072908719,0.159790039099704,0.965270996318495,0.0118411816766869,0.0255061318867131,-0.000700937720761002,0,0,-0.000329721868302688,-0.000513024718188482,0
0.309,0.515152439954833,0.0136722922452467,0.160156250037289,0.965148926005966,0.0153202917569506,0.0254805358791522,-0.000691006367461602,0,0,-6.22068526306276e-005,-0.000300410368340263,0
0.31,0.517593920712912,0.0117191076387829,0.160217285193553,0.965087890849702,0.00665303506576739,0.0254523197327025,-0.000749393977544709,0,0,-0.000158232860472976,-0.000381925481096359,0
0.311,0.510757774590289,0.0170903653065584,0.160034179724761,0.965270996318495,0.00689718314157537,0.0254181248742755,-0.000834024711540389,0,0,-0.000636825080321347,-0.000582622305055219,0
0.312,0.517105624561296,0.0136722922452467,0.159973144568497,0.965270996318495,0.0147099215674306,0.0253775777418012,-0.000838821009124313,0,0,-0.000478873369951256,-0.000427972522378883,0
0.313,0.513687551499985,0.010742515335551,0.160034179724761,0.965026855693438,-0.00421155430768761,0.0253372287248564,-0.000845415014909858,0,0,-0.00021040299393886,-0.000228670046124738,0
0.314,0.512710959196753,0.0190435499130222,0.159912109412232,0.965087890849702,0.0131229590746788,0.025297693642371,-0.000918764898027251,0,0,-0.000205750880599205,-0.000487173615800151,0
0.315,0.512222663045137,0.0122074037903989,0.160034179724761,0.965087890849702,0.00726340525528733,0.0252521944238401,-0.00082482826589624,0,0,-0.000132885544854544,-0.000661433030461501,0
0.316,0.514175847651601,0.0136722922452467,0.159912109412232,0.96520996116223,0.0043336283455916,0.025213604980083,-0.000885827707569308,0,0,-0.000147687575258265,-0.000577969856509386,0
0.317,0.511734366893521,0.0156254768517106,0.160095214881025,0.965087890849702,-0.0101931821649831,0.0251725650674777,-0.000892616798084823,0,0,-0.0001482720335951,-0.000420208116622303,0
0.318,0.513199255348369,0.0156254768517106,0.159912109412232,0.965087890849702,0.0032959990234077,0.0251303877219339,-0.000873790495862131,0,0,-0.000188666055804932,-0.000377969202243955,0
0.319,0.511734366893521,0.0141605883968627,0.159973144568497,0.965087890849702,-0.00097659230323191,0.0250900869105493,-0.00073125251132571,0,0,-0.000159081382225445,-0.000468986787167771,0
0.32,0.516129032258065,0.0141605883968627,0.160095214881025,0.965087890849702,-0.00354014709921567,0.0250602480832953,-0.000713643985276211,0,0,-1.30907993447408e-005,-0.000436251607664856,0
0.321,0.516129032258065,0.0156254768517106,0.159973144568497,0.96520996116223,0.00927762688070315,0.0250322283109716,-0.000660408137380951,0,0,-0.000196110129774106,-0.000395291447076097,0
0.322,0.514175847651601,0.0126956999420148,0.159973144568497,0.965087890849702,0.00994903408917508,0.025007657021512,-0.000588476977558409,0,0,-0.00018523687101738,-0.000240150211536507,0
0.323,0.51905880916776,0.0122074037903989,0.15972900394344,0.965087890849702,0.00225836970122379,0.0249882198870545,-0.000631266480303065,0,0,-6.31010721703777e-005,-0.000246803436902607,0
0.324,0.515152439954833,0.0097659230323191,0.159851074255968,0.964965820537174,0.00427259132663961,0.0249660259761529,-0.00067713987758169,0,0,0.000194381654461512,-0.000374532633828452,0
0.325,0.518082216864528,0.00585955381939146,0.160156250037289,0.965087890849702,0.00189214758751183,0.0249395779896294,-0.000654010307601432,0,0,0.000312618579097304,-0.000485907033096,0
0.326,0.514175847651601,0.00781273842585528,0.159973144568497,0.965087890849702,0.0192876979888302,0.0249122545074295,-0.000649651326214094,0,0,-0.00017038960218759,-0.000457800752935144,0
0.327,0.515152439954833,0.010742515335551,0.159973144568497,0.964965820537174,0.0157475508896146,0.0248806239601474,-0.000625100310154467,0,0,-0.000316131835761824,-0.000321765981639725,0
0.328,0.514664143803217,0.00927762688070315,0.160278320349818,0.965026855693438,-0.00122074037903989,0.0248455556583804,-0.0007516505081813,0,0,-0.000143274787960405,-0.000478901308026394,0
0.329,0.517593920712912,0.00732444227423933,0.160095214881025,0.965087890849702,-0.00457777642139958,0.0247996685893481,-0.000839812829992302,0,0,-0.000478469736233267,-0.000529382064866077,0
0.33,0.515152439954833,0.00830103457747124,0.160034179724761,0.965087890849702,0.0161748100222785,0.0247462161912466,-0.000776550491316898,0,0,-0.000564497519875987,-0.000348039892105686,0
0.331,0.513687551499985,0.0156254768517106,0.160034179724761,0.965087890849702,0.00195318460646382,0.0246936956242961,-0.000688400851192949,0,0,-0.000275058629880943,-0.000269988537220743,0
0.332,0.517105624561296,0.00878933072908719,0.160034179724761,0.964782715068381,0.00518814661091952,0.024643522192148,-0.000784210635975415,0,0,-0.000211183274759215,-0.000272489161367451,0
0.333,0.513687551499985,0.0126956999420148,0.160095214881025,0.965026855693438,0.0144047364726707,0.0245874104674932,-0.000751729776252098,0,0,-0.000200681965705971,-0.000588588812288267,0
0.334,0.515152439954833,0.0136722922452467,0.160095214881025,0.965026855693438,0.0184331797235023,0.0245337377490756,-0.000749102406318386,0,0,-0.000275533654053895,-0.000639809969670991,0
0.335,0.513199255348369,0.011230811487167,0.160095214881025,0.965087890849702,-0.00170903653065584,0.024479467954717,-0.000825879953524379,0,0,-0.000365544070718507,-0.000377293785975121,0
0.336,0.515152439954833,0.0141605883968627,0.160217285193553,0.964904785380909,0.000305185094759972,0.0244215026607878,-0.000932468054865724,0,0,-0.000359599525065447,-0.000304566351430892,0
0.337,0.515640736106449,0.0166020691549425,0.159973144568497,0.964965820537174,0.00695822016052736,0.0243573598969152,-0.000859185879781332,0,0,-0.000458880937173652,-0.000407200277487072,0
0.338,0.517593920712912,0.0166020691549425,0.160095214881025,0.964843750224645,0.0054322946867275,0.0242986853074151,-0.000807825474404929,0,0,-0.000300903901220198,-0.000516640003170814,0
0.339,0.516129032258065,0.00927762688070315,0.160034179724761,0.965026855693438,0.00555436872463149,0.0242460531866279,-0.000816891754190521,0,0,-0.000160221220823149,-0.000561016456095865,0
0.34,0.514175847651601,0.00927762688070315,0.159973144568497,0.965087890849702,0.00482192449720756,0.0241963344723972,-0.000812269204899818,0,0,-0.00022414481105538,-0.0004683901416195,0
0.341,0.514175847651601,0.011230811487167,0.16046142581861,0.964965820537174,-0.000793481246375927,0.0241473860106743,-0.000808986633180317,0,0,-8.50104819899705e-005,-0.000182242623692128,0
0.342,0.515152439954833,0.0102542191839351,0.160095214881025,0.96520996116223,0.00494399853511155,0.0240963481107617,-0.000799613106124683,0,0,-0.000539400905532023,-0.000234307139708439,0
0.343,0.517105624561296,0.0146488845484787,0.159912109412232,0.965148926005966,0.00677510910367138,0.0240445453694903,-0.000742549960409588,0,0,-0.000635976271856432,-8.51997487935802e-005,0
0.344,0.512710959196753,0.00927762688070315,0.160156250037289,0.964965820537174,0.00292977690969573,0.0239954862361039,-0.000738400306849415,0,0,-1.12899922227677e-005,0.000109531581336187,0
0.345,0.515640736106449,0.0131839960936308,0.160400390662346,0.964904785380909,0.0010376293221839,0.023947140972768,-0.000750254397212311,0,0,-8.22566484530926e-005,-0.000166996647507455,0
0.346,0.512710959196753,0.0146488845484787,0.159851074255968,0.964904785380909,0.0188604388561663,0.0238981226598533,-0.000728303344760643,0,0,-0.000602736312285327,-0.000418045639018762,0
0.347,0.514175847651601,0.0141605883968627,0.160156250037289,0.964904785380909,0.0086672566911832,0.0238500558782494,-0.000691463736994436,0,0,-0.000256530955660278,-0.000479493993634471,0
0.348,0.520523697622608,0.0102542191839351,0.160278320349818,0.964965820537174,0.0138554033021027,0.0238059887098482,-0.000810170828119988,0,0,-8.7867089803066e-006,-0.000482435748464238,0
0.349,0.517105624561296,0.00390636921292764,0.160156250037289,0.964904785380909,0.0064699240089114,0.0237563096723559,-0.00083378322425248,0,0,-0.000495170512868184,-0.000411428821043874,0
0.35,0.51905880916776,0.0102542191839351,0.160217285193553,0.965026855693438,0.0197149571214942,0.0237052507216527,-0.000900517214697955,0,0,-0.000486008678279827,-0.00040736836751947,0
0.351,0.511246070741905,0.0156254768517106,0.160095214881025,0.964965820537174,-0.00585955381939146,0.0236461595489646,-0.000899561363743079,0,0,-0.000419987923107325,-0.000346138227194084,0
0.352,0.513199255348369,0.00634784997100742,0.160034179724761,0.964843750224645,0.00933866389965514,0.0235836590334516,-0.00101254003499363,0,0,-0.000339325279184226,-0.00026997436317504,0
0.353,0.509781182287057,0.0190435499130222,0.160156250037289,0.964782715068381,0.0153813287759026,0.0235152941124858,-0.000898542625084714,0,0,-0.000115822574174371,-0.000447099095625518,0
0.354,0.513199255348369,0.0102542191839351,0.160034179724761,0.964721679912117,-0.00469985045930357,0.023454020427824,-0.000922374895738063,0,0,-0.000202066105568206,-0.000645296143526942,0
0.355,0.515640736106449,0.00878933072908719,0.160095214881025,0.964904785380909,0.010437330240791,0.0233924027577684,-0.000996661685214269,0,0,-0.000195778839896419,-0.000744142403785621,0
0.356,0.518082216864528,0.00878933072908719,0.160156250037289,0.964843750224645,-0.00097659230323191,0.0233286835030665,-0.000893632516662552,0,0,-0.000116360242900341,-0.000565251445469133,0
0.357,0.517105624561296,0.00878933072908719,0.160034179724761,0.964721679912117,0.0117801446577349,0.0232700148216545,-0.000927219106627015,0,0,-0.000245569949146276,-0.000402847096021376,0
0.358,0.514664143803217,0.0166020691549425,0.160400390662346,0.964782715068381,-0.010376293221839,0.0232072056876964,-0.000860563938087249,0,0,-0.00017069347018874,-0.000582658075359575,0
0.359,0.515152439954833,0.0126956999420148,0.160339355506082,0.964721679912117,0.0148319956053346,0.0231467945608633,-0.000907773164688919,0,0,-0.000416588196101383,-0.000605255361183436,0
0.36,0.513199255348369,0.011230811487167,0.160339355506082,0.964843750224645,-0.00463881344035157,0.0230846750810682,-0.000761525684747758,0,0,-0.000718194332132026,-0.000565032664902933,0
0.361,0.517105624561296,0.00781273842585528,0.160095214881025,0.964843750224645,0.000427259132663961,0.023034603788184,-0.000841196024165539,0,0,-0.000613644166848816,-0.000469812810626162,0
0.362,0.514175847651601,0.0151371807000946,0.160156250037289,0.964721679912117,0.0133060701315348,0.0229799541036396,-0.00074845981830322,0,0,-0.000295640468138454,-0.000292705276675417,0
0.363,0.516129032258065,0.0195318460646382,0.160339355506082,0.964782715068381,0.00366222113711966,0.0229298290371833,-0.000705106070786181,0,0,-9.00722251635161e-005,-0.000417651435259752,0
0.364,0.515640736106449,0.0097659230323191,0.160156250037289,0.964843750224645,-0.00122074037903989,0.0228826541742418,-0.000775202181181865,0,0,-0.000364278162643519,-0.000473700526865511,0
0.365,0.515640736106449,0.0156254768517106,0.160400390662346,0.964721679912117,0.00335703604235969,0.0228356761160037,-0.000757980818633466,0,0,-0.000335643796050357,-0.000306266124410998,0
0.366,0.519547105319376,0.0156254768517106,0.160339355506082,0.964843750224645,0.00634784997100742,0.0227921061432172,-0.00069986013687233,0,0,-0.000374403879275223,-0.000346815838279086,0
0.367,0.516129032258065,0.010742515335551,0.160278320349818,0.964721679912117,0.0211798455763421,0.0227529143271241,-0.000684748818998737,0,0,-0.000554322919504704,-0.000330214131091231,0
0.368,0.513687551499985,0.00781273842585528,0.160156250037289,0.964599609599588,0.0260628070925016,0.0227175030141573,-0.000696300561946619,0,0,-0.000419628490266164,-0.00034130621171424,0
0.369,0.515640736106449,0.00830103457747124,0.160522460974875,0.964782715068381,0.00958281197546312,0.0226821256167334,-0.000834644896831127,0,0,-0.000256423317705922,-0.000645342113659559,0
0.37,0.513687551499985,0.0097659230323191,0.160217285193553,0.964843750224645,-0.00970488601336711,0.0226357629444808,-0.00100627817012693,0,0,-0.000547870499039942,-0.000582761522638361,0
0.371,0.514175847651601,0.010742515335551,0.160400390662346,0.964782715068381,0.00531022064882351,0.0225755914546941,-0.00102544028531028,0,0,-0.000569489320801503,-0.00027191925567221,0
0.372,0.51661732840968,0.0126956999420148,0.160156250037289,0.964721679912117,0.00421155430768761,0.0225123393578153,-0.000877572000418292,0,0,-0.000385255893440269,-0.000237947456334192,0
0.373,0.516129032258065,0.0122074037903989,0.160339355506082,0.964538574443324,-0.00207525864436781,0.0224577287828934,-0.000868087264578893,0,0,-0.000299278126947474,-0.00035914479068897,0
0.374,0.517593920712912,0.0131839960936308,0.160339355506082,0.964782715068381,0.0177007354960784,0.0224040745460392,-0.000849752664168014,0,0,-0.000207447158333535,-0.000594002456708147,0
0.375,0.518082216864528,0.0131839960936308,0.160339355506082,0.964599609599588,0.00286873989074374,0.0223524752458474,-0.000778519047658661,0,0,-0.000405742052883518,-0.000504480677660888,0
0.376,0.510757774590289,0.0161137730033265,0.160339355506082,0.964721679912117,0.0021362956633198,0.0223064227480183,-0.000881785717078597,0,0,-0.000401085611255293,-0.00042774215188838,0
0.377,0.514175847651601,0.0141605883968627,0.160339355506082,0.964660644755853,0.00360118411816767,0.0222550978204332,-0.000851045540946075,0,0,-0.000373260977425451,-0.000464360772506406,0
0.378,0.510757774590289,0.0122074037903989,0.160339355506082,0.964660644755853,0.00671407208471938,0.02220818480163,-0.000815939621643601,0,0,-0.000348250311209867,-0.000367733364801013,0
0.379,0.514175847651601,0.00732444227423933,0.160400390662346,0.964660644755853,-0.0043946653645436,0.022166210891602,-0.000795633883104914,0,0,-0.000331638127168793,-0.00041600143009244,0
0.38,0.519547105319376,0.00927762688070315,0.160644531287403,0.964538574443324,0,0.0221265487841312,-0.000803367114697075,0,0,-0.000370092950484698,-0.000383249885924364,0
0.381,0.519547105319376,0.00537125766777551,0.160400390662346,0.964599609599588,-0.000915555284279916,0.0220847387793238,-0.000715106837783049,0,0,-0.000660457782715698,-0.000474611865985785,0
0.382,0.515640736106449,0.0102542191839351,0.160278320349818,0.964538574443324,0.00494399853511155,0.0220458281994037,-0.000670175350020828,0,0,-0.000608121795378743,-0.000499664369673828,0
0.383,0.514664143803217,0.00878933072908719,0.16046142581861,0.964599609599588,-0.00445570238349559,0.0220064624500009,-0.000620195484145841,0,0,-0.000170056602376624,-0.000464608906675818,0
0.384,0.516129032258065,0.00732444227423933,0.160278320349818,0.964660644755853,0.00476088747825556,0.0219675878869807,-0.000623733589060949,0,0,-0.000215870672755191,-0.000426412304234446,0
0.385,0.514664143803217,0.00634784997100742,0.160400390662346,0.964721679912117,-0.00140385143589587,0.0219273091602514,-0.000546235252319784,0,0,-0.000192614262233875,-0.000258195868676147,0
0.386,0.513687551499985,0.0102542191839351,0.160400390662346,0.964660644755853,-0.00732444227423933,0.0218897560621991,-0.000552846114304115,0,0,-0.000109344532379585,-0.000104863915774083,0
0.387,0.515640736106449,0.00488296151615955,0.160400390662346,0.96447753928706,0.000671407208471938,0.0218487851227916,-0.000506040124795299,0,0,-0.000211270933134529,-7.49290288212219e-005,0
0.388,0.516129032258065,0.00927762688070315,0.160522460974875,0.964538574443324,0.000671407208471938,0.0218091521108491,-0.000411272632024616,0,0,-0.000178111583532625,-0.000314343839289484,0
0.389,0.512710959196753,0,0.160644531287403,0.964599609599588,-0.00207525864436781,0.0217734533202967,-0.00039120404872023,0,0,-0.000291216821946685,-0.000419150073531573,0
0.39,0.516129032258065,0.00146488845484787,0.160705566443667,0.964538574443324,-0.000732444227423933,0.0217366712619759,-0.000372396411693384,0,0,-0.000525500986249118,-0.000249238078380192,0
0.391,0.513687551499985,0.00732444227423933,0.160583496131139,0.964355468974532,0.00146488845484787,0.0216970315002943,-0.00033115597310242,0,0,-0.000677418653601476,-0.000219783787757041,0
0.392,0.515640736106449,0.00878933072908719,0.160278320349818,0.964721679912117,0,0.0216532690536017,-0.00030405162425649,0,0,-0.000561208271369332,-0.000461787227267097,0
0.393,0.515152439954833,0.00634784997100742,0.160644531287403,0.964416504130796,0.00146488845484787,0.0216077559273549,-0.000297541908075187,0,0,-5.6827785307008e-005,-0.000227731754248601,0
0.394,0.517105624561296,0.0117191076387829,0.160156250037289,0.964538574443324,-0.000366222113711966,0.0215622245482077,-0.000278846798624305,0,0,-0.000111758503202085,-0.000140117096449061,0
0.395,0.512710959196753,0.0097659230323191,0.160644531287403,0.964416504130796,0.0116580706198309,0.0215171138464259,-0.000273920748343825,0,0,3.53591908601255e-005,-0.000321607447419742,0
0.396,0.515640736106449,0.00830103457747124,0.160583496131139,0.96447753928706,0.0150761436811426,0.0214727169005903,-0.000253561197430514,0,0,2.60529397741352e-005,-0.00030916798487955,0
0.397,0.511734366893521,0.0141605883968627,0.16046142581861,0.964416504130796,-0.00860621967223121,0.0214313260628304,-0.000337859996813953,0,0,-0.000468254681431817,-0.00038665188457567,0
0.398,0.512222663045137,0.0117191076387829,0.160827636756196,0.964416504130796,0.0125125888851588,0.0213848874750111,-0.000446249104954256,0,0,-0.000241219574221424,-0.000362789218346938,0
0.399,0.511246070741905,0.00683614612262337,0.160400390662346,0.964538574443324,0.0065309610278634,0.0213335939727342,-0.000344218283307044,0,0,-0.000486644807739721,-0.000402607308247358,0
0.4,0.514175847651601,0.0097659230323191,0.160522460974875,0.96447753928706,-0.000183111056855983,0.0212920776293013,-0.000430167669624235,0,0,-0.000409495479477097,-0.000264510261996415,0
0.401,0.509292886135441,0.0097659230323191,0.160522460974875,0.96447753928706,-0.00512710959196753,0.0212453269796496,-0.000459289519294492,0,0,-5.36343265050295e-005,-0.000181749802929202,0
0.402,0.512710959196753,0.011230811487167,0.160644531287403,0.964355468974532,0.0248420667134617,0.0211962253068918,-0.000428857206350737,0,0,-0.000164453224672797,-0.000218697036261813,0
0.403,0.517105624561296,0.00878933072908719,0.160766601599931,0.96447753928706,0.00494399853511155,0.0211497650811322,-0.000357830875571749,0,0,-0.000306139172074729,-0.000357078556117015,0
0.404,0.516129032258065,0.0097659230323191,0.160400390662346,0.964599609599588,-0.000427259132663961,0.0211090581248801,-0.000548927915060376,0,0,-0.000586298975192336,-0.000369866754668598,0
0.405,0.521011993774224,0.0102542191839351,0.160827636756196,0.964355468974532,-0.000244148075807978,0.021056915730938,-0.000556943893405045,0,0,-0.000282767910724735,-7.95203203100102e-005,0
0.406,0.51661732840968,0.00537125766777551,0.160400390662346,0.964538574443324,-0.00592059083834346,0.0210044334354873,-0.000518276706708654,0,0,-0.000320309775548294,-0.000195510752288896,0
0.407,0.514175847651601,0.0043946653645436,0.160400390662346,0.96447753928706,-0.0097659230323191,0.0209551191420087,-0.000483613352355498,0,0,-0.000281335541015874,-0.000230206150712336,0
0.408,0.515152439954833,0.00244148075807978,0.160583496131139,0.96447753928706,0.00122074037903989,0.0209069974944072,-0.000402324618939173,0,0,0.000231882543013987,-5.04383651408786e-005,0
0.409,0.514175847651601,0.00146488845484787,0.160400390662346,0.964599609599588,-0.00488296151615955,0.0208609177157108,-0.000293083078926672,0,0,4.22520615848029e-005,-9.07361675438845e-005,0
0.41,0.51661732840968,-0.000488296151615955,0.160644531287403,0.96447753928706,-0.00506607257301553,0.020817746287641,-0.000285163468307241,0,0,5.49146718610534e-005,6.21620652695015e-005,0
0.411,0.51661732840968,-0.000488296151615955,0.160705566443667,0.964599609599588,0.0137943662831507,0.0207701739655912,-0.000225264749831042,0,0,1.00653042791531e-005,8.29383196510867e-005,0
0.412,0.511246070741905,0.00634784997100742,0.160583496131139,0.964599609599588,0.0100711081270791,0.0207207395114826,-0.000167555277483301,0,0,-0.000324465698979024,7.43036293702819e-005,0
0.413,0.514664143803217,0.00585955381939146,0.16046142581861,0.964294433818267,-0.000793481246375927,0.0206689438049031,-0.000275624837275826,0,0,-0.000264878448783441,0.000175665746409506,0
0.414,0.516129032258065,0.00878933072908719,0.160766601599931,0.964599609599588,0.00750755333109531,0.0206072895362413,-0.000344893392248702,0,0,1.13072083352947e-005,-0.000169589764105112,0
0.415,0.517593920712912,0.00634784997100742,0.16046142581861,0.964355468974532,-0.00201422162541581,0.0205409395816662,-0.000316401128784711,0,0,-0.000187933274539561,-0.000159608997859237,0
0.416,0.518082216864528,0.00537125766777551,0.160583496131139,0.964416504130796,-0.00097659230323191,0.0204770886766085,-0.000361067414900299,0,0,-0.000175003356918488,-8.23374210280546e-005,0
0.417,0.514664143803217,0.0131839960936308,0.160583496131139,0.964599609599588,-0.000549333170567949,0.0204112258936038,-0.000321063565287965,0,0,4.80460418770039e-005,-0.000261335765377359,0
0.418,0.514664143803217,0.0126956999420148,0.16046142581861,0.964416504130796,0.00708029419843135,0.0203474093113498,-0.000292494272660269,0,0,-7.51121594065023e-005,3.07556860507454e-005,0
0.419,0.517593920712912,0.00634784997100742,0.160583496131139,0.964355468974532,0.00274666585283975,0.0202875827565724,-0.000269393411446054,0,0,6.1351378967239e-005,2.86357229359497e-005,0
0.42,0.512710959196753,0.00927762688070315,0.16046142581861,0.964355468974532,0.00738547929319132,0.0202340751397664,-0.000313339909733974,0,0,5.24294622354301e-005,-0.000242561695954155,0
0.421,0.515640736106449,0.00683614612262337,0.160522460974875,0.964538574443324,-0.0137333292641987,0.0201796766346317,-0.000317266702814456,0,0,4.36261479962482e-005,-0.000299461841408224,0
0.422,0.512710959196753,0.000488296151615955,0.160827636756196,0.96447753928706,-0.00262459181493576,0.0201255458523211,-0.000360829069076432,0,0,0.000126159701878198,-6.38937960474854e-005,0
0.423,0.514664143803217,0.00341807306131169,0.160644531287403,0.964416504130796,0.00610370189519944,0.0200693456026532,-0.000220084908772105,0,0,-0.000243922194312933,0.000106138950015144,0
0.424,0.510269478438673,0.00830103457747124,0.16088867191246,0.964416504130796,0.00451673940244758,0.0200194107186693,-0.000183691580103751,0,0,-0.00035713341846933,-2.83973185008821e-005,0
0.425,0.514175847651601,0.0043946653645436,0.160278320349818,0.964538574443324,-0.000610370189519944,0.0199679566751487,-0.000224626609399739,0,0,-0.000408108980429124,-9.9398844575836e-005,0
0.426,0.515152439954833,0.00781273842585528,0.160522460974875,0.96447753928706,-0.0032959990234077,0.0199133506767722,-0.000249345669915938,0,0,1.65946493836512e-005,4.22302876019748e-005,0
0.427,0.518082216864528,0.0122074037903989,0.160522460974875,0.964355468974532,0.00421155430768761,0.0198570731420285,-0.000228431148252932,0,0,0.000427113454739652,0.000120851824314278,0
0.428,0.515640736106449,0.00244148075807978,0.160339355506082,0.964355468974532,-0.00750755333109531,0.0198018467004426,-0.000185740971608382,0,0,0.000144631764170642,-7.69058840512494e-005,0
0.429,0.512710959196753,0.011230811487167,0.160522460974875,0.964355468974532,-0.0140385143589587,0.0197520426981708,-0.00021027945322151,0,0,0.000348091047850024,-0.000190286552934544,0
0.43,0.514175847651601,0.0126956999420148,0.160644531287403,0.964233398662003,0.00714133121738334,0.0197011522867409,-0.00013252085016154,0,0,0.000368217629037934,-0.000137363054965202,0
0.431,0.515152439954833,0.00781273842585528,0.160522460974875,0.964355468974532,-0.00732444227423933,0.0196553496624852,-3.49788273977708e-006,0,0,3.45695874000157e-005,-0.000242010746990665,0
0.432,0.513687551499985,0.0141605883968627,0.160644531287403,0.964599609599588,0.00317392498550371,0.01962179903626,-6.46758569364926e-005,0,0,4.14002972852232e-005,-0.000218331300833419,0
0.433,0.514175847651601,0.00195318460646382,0.160400390662346,0.964355468974532,0.00573747978148747,0.0195867695207323,2.35990100494494e-006,0,0,5.37048141387547e-005,0.000206198274516001,0
0.434,0.514175847651601,0.0102542191839351,0.160400390662346,0.964416504130796,0.00207525864436781,0.0195588487860448,-2.507626601541e-005,0,0,0.000177725419443174,0.000188795036515682,0
0.435,0.512222663045137,0.00537125766777551,0.160644531287403,0.96447753928706,0.0123294778283029,0.0195295845433707,-7.28287867210777e-005,0,0,0.000428002052473433,-2.40725035679684e-005,0
0.436,0.512222663045137,0.0141605883968627,0.160644531287403,0.964416504130796,0.00378429517502365,0.0194961801303597,-8.60949010614034e-005,0,0,0.00012463585846145,9.6503519979165e-005,0
0.437,0.513687551499985,0.0156254768517106,0.160583496131139,0.964599609599588,0.0137333292641987,0.0194622507340151,-0.00018668835645622,0,0,-0.00016272958536853,7.51203198388064e-005,0
0.438,0.514664143803217,0.0136722922452467,0.160583496131139,0.96447753928706,0.000915555284279916,0.0194237556356745,-0.000207493942307055,0,0,-0.000104260509860374,0.000185167160605419,0
0.439,0.517105624561296,0.0117191076387829,0.160705566443667,0.964599609599588,-0.00292977690969573,0.0193896147466374,-0.000312529314662814,0,0,-4.49442355771211e-005,0.000226852063879446,0
0.44,0.52150028992584,0.00878933072908719,0.160827636756196,0.964416504130796,0.00445570238349559,0.0193538919343752,-0.00030076402543343,0,0,-0.000162387925385435,0.000224985310067271,0
0.441,0.513687551499985,0.0146488845484787,0.160705566443667,0.964416504130796,-0.00262459181493576,0.0193221910882297,-0.000256677642777671,0,0,-0.000410191845472633,0.000151784722808451,0
0.442,0.513687551499985,0.00878933072908719,0.160583496131139,0.964416504130796,0.00122074037903989,0.019294440142914,-0.000278858110357192,0,0,-0.000379130097754464,-4.95894067169982e-005,0
0.443,0.517593920712912,0.00341807306131169,0.160522460974875,0.96447753928706,-0.00164799951170385,0.0192674929951433,-0.000238771952522285,0,0,-8.08819459839624e-005,-3.56847095066579e-005,0
0.444,0.515152439954833,0.00244148075807978,0.160644531287403,0.964538574443324,-0.00878933072908719,0.019245225500373,-0.000234264810617258,0,0,0.000131598613355815,4.19082838941206e-005,0
0.445,0.515640736106449,0.00683614612262337,0.160400390662346,0.964538574443324,0.000671407208471938,0.0192209126137514,-0.000205376806306412,0,0,8.18101680686615e-005,0.000195784956352009,0
0.446,0.516129032258065,0.00292977690969573,0.160827636756196,0.964416504130796,0.0086672566911832,0.0191938385076049,-0.000116906136186879,0,0,0.000229627859078674,0.000270592405757532,0
0.447,0.518570513016144,0.00341807306131169,0.160644531287403,0.964538574443324,-0.0134281441694388,0.0191694161084513,-0.000115333145298229,0,0,1.18138007405776e-005,0.000116349985955148,0
0.448,0.515152439954833,0.00488296151615955,0.160522460974875,0.964660644755853,0.011413922544023,0.0191424860593499,-0.000182603480626524,0,0,-0.000237632543794732,0.000124803976566347,0
0.449,0.514664143803217,0.011230811487167,0.160583496131139,0.96447753928706,0.00683614612262337,0.0191075491461066,-5.5681399892696e-005,0,0,0.000118507234590667,0.000392797707662862,0
0.45,0.516129032258065,0.0136722922452467,0.160583496131139,0.964538574443324,-0.00598162785729545,0.0190779945574812,-0.000150314285174205,0,0,0.000158242437412324,0.00028368942995167,0
0.451,0.519547105319376,0.00878933072908719,0.160705566443667,0.964233398662003,-0.00451673940244758,0.0190428818820707,-0.000199643677161251,0,0,8.96129865202321e-005,0.000141350873074898,0
0.452,0.513687551499985,0.00878933072908719,0.160766601599931,0.964355468974532,0.0043336283455916,0.0190084552103588,-0.000135672517536901,0,0,-2.3932733016216e-005,-0.00010748085608767,0
0.453,0.513687551499985,0.00537125766777551,0.160583496131139,0.964416504130796,0.000915555284279916,0.0189807223998304,-8.83151952151234e-005,0,0,-0.000212238536629315,-0.000290697070468958,0
0.454,0.519547105319376,0.0097659230323191,0.160522460974875,0.96447753928706,0.00549333170567949,0.0189565889751264,-0.000120024653129351,0,0,-6.69316730295788e-005,-7.45435464383654e-005,0
0.455,0.518082216864528,0.00341807306131169,0.160644531287403,0.964416504130796,0.00988799707022309,0.0189297084725809,-0.000120354788509073,0,0,0.000199918061250982,6.06356502114122e-005,0
0.456,0.51661732840968,0.0122074037903989,0.160705566443667,0.964538574443324,-0.00921658986175115,0.0189024802957218,-0.000160021714621817,0,0,0.000106738733326284,4.20082550689964e-005,0
0.457,0.514175847651601,0.0136722922452467,0.160522460974875,0.96447753928706,0.00366222113711966,0.0188716776199491,-0.000234979526661903,0,0,-9.07594429345571e-005,0.00011272181002253,0
0.458,0.512710959196753,0.0156254768517106,0.160522460974875,0.964538574443324,0.0032959990234077,0.0188361065234,-0.000140975492949737,0,0,6.33945310601871e-005,0.000188412982594163,0
0.459,0.516129032258065,0.0117191076387829,0.160827636756196,0.964416504130796,0.000671407208471938,0.0188104839752903,-0.000163603768490551,0,0,0.00025536913466916,0.000174570347942752,0
0.46,0.516129032258065,0.0166020691549425,0.160644531287403,0.964538574443324,-0.0101321451460311,0.0187884433544229,-0.00018166166484726,0,0,-8.83908313611995e-005,0.000100000963240353,0
0.461,0.517105624561296,0.0190435499130222,0.160644531287403,0.964355468974532,-0.0021362956633198,0.0187691834386111,-0.000176019964096235,0,0,-0.000192897038346472,0.000116152532540527,0
0.462,0.510757774590289,0.0166020691549425,0.160583496131139,0.964294433818267,0.00598162785729545,0.0187542876391969,-7.78489622062333e-005,0,0,4.33672073579119e-005,6.93216028875543e-005,0
0.463,0.514175847651601,0.00830103457747124,0.160583496131139,0.96447753928706,-0.00488296151615955,0.0187521433765098,-5.4590718567442e-005,0,0,0.000108790169316356,-0.000197172121873405,0
0.464,0.515640736106449,0.0131839960936308,0.160644531287403,0.964294433818267,-0.00207525864436781,0.018757571449344,-0.00010258785999357,0,0,0.000174331568022197,-4.69249761283411e-005,0
0.465,0.515152439954833,0.0195318460646382,0.160644531287403,0.964538574443324,-0.00140385143589587,0.0187615454316486,-5.41607053134295e-005,0,0,0.000115782597669067,-2.5928308875748e-005,0
0.466,0.51661732840968,0.0097659230323191,0.160278320349818,0.964355468974532,0.0191656239509262,0.0187687383931903,-3.29156058679297e-005,0,0,5.54726160425086e-005,5.45287005852537e-005,0
0.467,0.516129032258065,0.0122074037903989,0.160644531287403,0.964355468974532,0.00390636921292764,0.0187816722188241,-1.87778136727204e-005,0,0,0.00042939278903066,9.81707796663886e-005,0
0.468,0.513687551499985,0.0136722922452467,0.16046142581861,0.964416504130796,-0.0120853297524949,0.0187982696589327,-0.000182374843479268,0,0,0.000376293058987654,-0.000132952906734896,0
0.469,0.513687551499985,0.00781273842585528,0.160705566443667,0.96447753928706,-0.0152592547379986,0.0188042254773483,-0.000204500989577046,0,0,0.000175230813801888,-3.87244013911658e-005,0
0.47,0.509292886135441,0.0156254768517106,0.160644531287403,0.964538574443324,-0.0126346629230628,0.0188101258501935,-8.77479243450706e-005,0,0,0.000147148715689128,0.000144428593496893,0
0.471,0.515152439954833,0.00878933072908719,0.160583496131139,0.964416504130796,0.00286873989074374,0.0188230525641427,4.89572195137159e-005,0,0,-1.08384166492924e-005,0.000316942761115851,0
0.472,0.51661732840968,0.0117191076387829,0.160644531287403,0.964538574443324,-0.00531022064882351,0.0188450518399741,0.000154507939842344,0,0,0.000143658120075066,0.000253270148488263,0
0.473,0.513687551499985,0.0141605883968627,0.160522460974875,0.96447753928706,0.0143436994537187,0.0188744215577613,0.000120135865183975,0,0,0.000145495821881391,0.000248430498620088,0
0.474,0.518570513016144,0.0131839960936308,0.160766601599931,0.96447753928706,-0.00140385143589587,0.0189005973679376,0.000158242245304888,0,0,0.000196025010547214,0.000292689106894003,0
0.475,0.515152439954833,0.0097659230323191,0.160705566443667,0.964416504130796,0.00714133121738334,0.0189303250166622,2.49793193792972e-005,0,0,3.94620886635458e-005,0.000196304715265612,0
0.476,0.515640736106449,0.0141605883968627,0.160827636756196,0.964599609599588,-0.00457777642139958,0.018953144802693,3.54794661377701e-005,0,0,-0.000162758143107258,0.000116664173760136,0
0.477,0.515640736106449,0.00927762688070315,0.160644531287403,0.964416504130796,-0.00097659230323191,0.0189764367096143,-2.81475271167476e-005,0,0,-0.000215758442154681,0.000244843367634267,0
0.478,0.519547105319376,0.00830103457747124,0.160766601599931,0.964538574443324,-0.0064699240089114,0.0189958892103128,1.29785679220808e-005,0,0,-0.000121249353672853,0.000245226370238092,0
0.479,0.511734366893521,0.0136722922452467,0.160766601599931,0.96447753928706,-0.0153813287759026,0.0190179742128747,2.05593743161332e-005,0,0,-2.97576620753757e-005,0.000182258835038674,0
0.48,0.515152439954833,0.00878933072908719,0.160522460974875,0.964538574443324,-0.0148930326242866,0.0190382749873764,7.48929050975022e-005,0,0,-0.000120565633608435,0.000276736587923084,0
0.481,0.510269478438673,0.00781273842585528,0.160522460974875,0.964538574443324,-0.000427259132663961,0.019061624757388,0.00020242855849063,0,0,0.000202937054136599,0.000311767920405258,0
0.482,0.515152439954833,0.0102542191839351,0.160400390662346,0.964416504130796,0.00305185094759972,0.0190928890618156,0.000317752773514938,0,0,0.000483996125321324,0.000387995869553724,0
0.483,0.511246070741905,0.0146488845484787,0.160522460974875,0.96447753928706,-0.00427259132663961,0.019129001457105,0.000301461147753023,0,0,0.000588723044219195,0.000234302461077815,0
0.484,0.514664143803217,0.0151371807000946,0.160583496131139,0.964355468974532,0.00360118411816767,0.0191622671062545,0.000256281429376754,0,0,0.000560685901222603,0.000161788811897818,0
0.485,0.518082216864528,0.0146488845484787,0.16046142581861,0.964599609599588,0.00115970336008789,0.0191935909406496,0.000276912490428439,0,0,0.000335283068716508,9.28202527393557e-005,0
0.486,0.512222663045137,0.0146488845484787,0.160522460974875,0.964172363505739,-0.00567644276253548,0.0192289670270455,0.000228552305632214,0,0,0.000379694953246913,0.000218069619728142,0
0.487,0.511246070741905,0.0151371807000946,0.160583496131139,0.964660644755853,0.000793481246375927,0.0192637249497217,0.000204221365528668,0,0,0.000435313306085065,1.92653973475924e-005,0
0.488,0.518082216864528,0.0131839960936308,0.160583496131139,0.964416504130796,-0.0119632557145909,0.0192990681356889,0.00024019310054651,0,0,0.000289811560861912,9.73098391281578e-005,0
0.489,0.509292886135441,0.0180669576097903,0.160522460974875,0.964416504130796,-0.011230811487167,0.019338941182721,0.000218279350427326,0,0,0.000228580204103817,0.000378140908417671,0
0.49,0.515152439954833,0.0190435499130222,0.160705566443667,0.964416504130796,0.0163579210791345,0.0193788611897904,0.000307418809221151,0,0,0.000321092947206767,0.000131207108772719,0
0.491,0.517105624561296,0.0146488845484787,0.160583496131139,0.964599609599588,-0.00189214758751183,0.0194269350666719,0.000384660265237032,0,0,0.000167071233259748,0.000120887109107204,0
0.492,0.510757774590289,0.0180669576097903,0.160644531287403,0.964233398662003,-0.00524918362987152,0.0194844477932789,0.000219853760699952,0,0,7.45181952934963e-005,0.000295415994519214,0
0.493,0.510269478438673,0.0166020691549425,0.160644531287403,0.964599609599588,0.00207525864436781,0.0195342437219083,0.000222307722127325,0,0,0.000152221953240967,9.53946116633288e-005,0
0.494,0.512222663045137,0.0126956999420148,0.160522460974875,0.96447753928706,-0.00207525864436781,0.0195864955518472,0.000253469688028025,0,0,8.70106966237344e-005,9.97122852974242e-005,0
0.495,0.512222663045137,0.021485030671102,0.160583496131139,0.964538574443324,0.00891140476699118,0.0196436760453549,0.000219701635864712,0,0,0.000219153181493496,0.000363215252238995,0
0.496,0.513199255348369,0.0126956999420148,0.160400390662346,0.96447753928706,0.00677510910367138,0.0196993391840553,0.000223739456927409,0,0,0.0002669001977866,0.000270052049092329,0
0.497,0.512710959196753,0.0146488845484787,0.160705566443667,0.96447753928706,-0.0117801446577349,0.0197576847889123,0.000133065493208697,0,0,0.000364572885692698,0.000235398494183729,0
0.498,0.514175847651601,0.0102542191839351,0.160583496131139,0.96447753928706,-0.00122074037903989,0.0198124910863137,6.64555917394544e-005,0,0,0.000223151208598766,0.000167912988973247,0
0.499,0.512710959196753,0.0146488845484787,0.160583496131139,0.964599609599588,0.00793481246375927,0.0198625191445015,0.000163560117281936,0,0,3.6179876892416e-005,0.000182508019459006,0
0.5,0.514664143803217,0.00830103457747124,0.160522460974875,0.964660644755853,-0.00360118411816767,0.0199172766202411,0.00016377867435799,0,0,0.000161232060467248,0.000298646177064841,0
0.501,0.514664143803217,0.00830103457747124,0.160949707068724,0.964599609599588,0.00891140476699118,0.0199706453353707,8.52684315865648e-005,0,0,0.00021619727981925,0.000477374633740765,0
0.502,0.51661732840968,0.0126956999420148,0.160522460974875,0.964416504130796,-0.00305185094759972,0.0200169450769427,0.000110872117905335,0,0,-0.00019611129663819,0.000445558355118516,0
0.503,0.517593920712912,0.0175786614581744,0.160583496131139,0.964538574443324,0.00280770287179174,0.0200605016986818,2.72898182486627e-005,0,0,-0.000187706265390587,0.000150605642327934,0
0.504,0.517593920712912,0.0141605883968627,0.160766601599931,0.964416504130796,-0.0010986663411359,0.0200963083910668,5.18135042319031e-005,0,0,0.000225759176544791,8.09919469940543e-005,0
0.505,0.518082216864528,0.0141605883968627,0.160644531287403,0.96447753928706,-0.00561540574358348,0.0201349293647834,2.44186783797766e-005,0,0,-4.95965443321861e-005,7.87236406210284e-005,0
0.506,0.513199255348369,0.00732444227423933,0.160583496131139,0.964538574443324,0.00164799951170385,0.0201735006903392,3.23302156677778e-005,0,0,-9.73698758088036e-005,2.31332929439297e-005,0
0.507,0.51905880916776,0.00878933072908719,0.160766601599931,0.964599609599588,0.00549333170567949,0.0202128425023251,7.85774230413458e-005,0,0,0.000117823479382152,0.000164918710284045,0
0.508,0.518570513016144,0.00781273842585528,0.160766601599931,0.964416504130796,-0.0170293282876064,0.0202527813035104,5.94715457918016e-005,0,0,-2.71457050474937e-005,0.000281349052266874,0
0.509,0.51661732840968,0.0180669576097903,0.160705566443667,0.964416504130796,-0.00891140476699118,0.0202872448974815,8.50579786382502e-006,0,0,-0.00020132388790085,0.000154445087621999,0
0.51,0.517105624561296,0.010742515335551,0.160705566443667,0.96447753928706,0.00677510910367138,0.0203146502054922,0.000154381388374771,0,0,-7.9174936647133e-005,-9.34719178499542e-006,0
0.511,0.514664143803217,0.0200201422162542,0.160766601599931,0.96447753928706,0.00689718314157537,0.0203513291228381,0.000221297318698073,0,0,-4.16884568989065e-007,6.51570898280674e-005,0
0.512,0.513199255348369,0.0175786614581744,0.160400390662346,0.964538574443324,0.00946073793755913,0.020393315792002,0.000149143648133425,0,0,-8.23322430230589e-005,0.000111381330496565,0
0.513,0.516129032258065,0.0175786614581744,0.16046142581861,0.964538574443324,0.00262459181493576,0.020432426711739,8.04739921629342e-005,0,0,0.000233219748398605,0.000150864191296141,0
0.514,0.517105624561296,0.0126956999420148,0.160644531287403,0.964355468974532,-0.000793481246375927,0.0204714275596004,-5.92124097351698e-006,0,0,0.000536076209623805,0.00019446911663154,0
0.515,0.513687551499985,0.0151371807000946,0.160705566443667,0.96447753928706,0.0124515518662069,0.0205079580545845,-2.81141844477312e-005,0,0,0.000241330152615802,-1.33997813084567e-005,0
0.516,0.518082216864528,0.0117191076387829,0.160705566443667,0.96447753928706,0.000671407208471938,0.02054400277206,-1.95257456244909e-005,0,0,-5.02017215521882e-005,-9.12126458805719e-005,0
0.517,0.515640736106449,0.00732444227423933,0.160522460974875,0.964416504130796,-0.0032349620044557,0.0205805467271579,-0.000125351398646185,0,0,-0.000127889408506345,3.17993301871185e-005,0
0.518,0.517105624561296,0.0122074037903989,0.160583496131139,0.964538574443324,0.00268562883388775,0.0206099217646965,-0.000123247776267539,0,0,8.7025058861392e-005,-2.72826062772067e-005,0
0.519,0.513199255348369,0.0126956999420148,0.160644531287403,0.964538574443324,0.00115970336008789,0.0206360459031486,-8.76912329138472e-005,0,0,0.000219705665265723,4.629428178187e-005,0
0.52,0.514664143803217,0.0166020691549425,0.160766601599931,0.96447753928706,-0.00659199804681539,0.0206614615162408,-0.000105271183385461,0,0,7.34123009183592e-005,0.000174833278109044,0
0.521,0.515152439954833,0.0131839960936308,0.160705566443667,0.964416504130796,-0.011352885525071,0.0206850430902642,-0.000108627375075134,0,0,-0.000116127173325661,0.000111249673267421,0
0.522,0.514175847651601,0.0170903653065584,0.160644531287403,0.96447753928706,-0.00683614612262337,0.0207094423398361,-4.51272672038379e-005,0,0,-0.00014331585963498,4.14251242600333e-006,0
0.523,0.514664143803217,0.011230811487167,0.160522460974875,0.964355468974532,-0.00360118411816767,0.0207389984745931,5.53148463203679e-005,0,0,2.9519788645465e-005,3.58610451932365e-005,0
0.524,0.514175847651601,0.0156254768517106,0.16046142581861,0.964416504130796,-0.00683614612262337,0.0207761405400017,0.000110613229091381,0,0,0.000246076130076009,-1.22373867183659e-005,0
0.525,0.513199255348369,0.0161137730033265,0.160827636756196,0.964355468974532,0.00207525864436781,0.0208171223537609,0.000134624454817195,0,0,0.000449314050012419,-5.75319858466956e-005,0
0.526,0.512710959196753,0.0170903653065584,0.160583496131139,0.964599609599588,0.00408948026978362,0.0208593357362853,0.000184939667919954,0,0,0.000103001514989225,-4.26328503216815e-005,0
0.527,0.51661732840968,0.00537125766777551,0.16046142581861,0.964721679912117,-0.00537125766777551,0.0209063308379441,0.000155477483911079,0,0,-4.04584257865852e-005,0.000153114566711536,0
0.528,0.518082216864528,0.0097659230323191,0.160705566443667,0.964416504130796,-0.00177007354960784,0.0209534684376734,0.000110549148668719,0,0,0.000364549511863496,0.00054633041398336,0
0.529,0.519547105319376,0.0151371807000946,0.16046142581861,0.96447753928706,0.0126956999420148,0.0209954886033239,0.000149782647069835,0,0,0.000225091368888187,0.000329731412770281,0
0.53,0.513687551499985,0.0185552537614063,0.160705566443667,0.964538574443324,0.00274666585283975,0.0210350496334621,0.000155589772180041,0,0,0.000199093066881,3.30901663989005e-005,0
0.531,0.517593920712912,0.0141605883968627,0.160583496131139,0.96447753928706,0.0010986663411359,0.0210740221928896,3.66622182063571e-005,0,0,0.00016798631250782,0.000144230224157982,0
0.532,0.518082216864528,0.0131839960936308,0.160583496131139,0.964294433818267,-0.000610370189519944,0.0211079204024632,1.07441428483124e-005,0,0,2.41394631458448e-005,0.000133964787674794,0
0.533,0.514664143803217,0.0161137730033265,0.160644531287403,0.96447753928706,0.0177617725150304,0.021142168264341,6.23260343318127e-007,0,0,0.00015836436760897,-0.000134903367603216,0
0.534,0.513199255348369,0.0122074037903989,0.160766601599931,0.964416504130796,0.00500503555406354,0.0211755307128504,5.83177090776056e-006,0,0,6.12161294450653e-005,-0.000148119186398674,0
0.535,0.512710959196753,0.0161137730033265,0.160400390662346,0.96447753928706,0.000854518265327921,0.0212097663436047,-0.000147241881017759,0,0,-0.000170429742365674,-3.66771623348012e-005,0
0.536,0.514175847651601,0.010742515335551,0.160522460974875,0.96447753928706,-0.00769066438795129,0.0212344329795071,-0.000181021304351063,0,0,0.000100030418681156,-3.86334247567206e-005,0
0.537,0.516129032258065,0.00878933072908719,0.160766601599931,0.964599609599588,0.00579851680043947,0.0212571745253676,-0.000176994139986675,0,0,0.000373067784586896,4.46497156743207e-005,0
0.538,0.517105624561296,0.0097659230323191,0.160583496131139,0.96447753928706,-0.00811792352061525,0.0212798137220306,-9.97526134872963e-005,0,0,-3.87015376129603e-005,0.000181423936398576,0
0.539,0.51661732840968,0.010742515335551,0.160705566443667,0.96447753928706,-0.0121463667714469,0.0213041877543979,-0.000143337848017348,0,0,-9.44568497991571e-005,0.000178326127361235,0
0.54,0.518570513016144,0.0141605883968627,0.160949707068724,0.964416504130796,0.0076296273689993,0.0213223999774747,-6.45376388931962e-005,0,0,1.21625013849505e-005,7.01267126523582e-005,0
0.541,0.512710959196753,0.011230811487167,0.160522460974875,0.964416504130796,0.0010376293221839,0.0213432137103909,4.39460367698514e-005,0,0,-0.000374001612721076,1.07671268855886e-005,0
0.542,0.509781182287057,0.00927762688070315,0.160400390662346,0.964355468974532,0.00408948026978362,0.0213703001415558,-2.44110637400506e-005,0,0,-0.000161864725218443,-6.48038255220834e-005,0
0.543,0.513687551499985,0.0117191076387829,0.160644531287403,0.964416504130796,0.00390636921292764,0.0213926267011567,-3.17983123533003e-005,0,0,0.000439112896985394,-0.000130410155435181,0
0.544,0.518082216864528,0.0146488845484787,0.160827636756196,0.964538574443324,-0.00463881344035157,0.0214123235374406,-6.49597622808738e-005,0,0,0.000272464321797207,-0.000130230255317433,0
0.545,0.51905880916776,0.011230811487167,0.160827636756196,0.964538574443324,-0.00640888698995941,0.0214280742051528,-9.44633155089226e-005,0,0,-0.000201238339683523,8.12696447655294e-005,0
0.546,0.512710959196753,0.0097659230323191,0.160705566443667,0.96447753928706,0.00207525864436781,0.0214422253048959,-4.86457094808207e-005,0,0,-0.000366389757050382,0.000229243985610651,0
0.547,0.514175847651601,0.0166020691549425,0.160705566443667,0.964599609599588,-0.00128177739799188,0.0214593204564267,9.5113378408239e-006,0,0,-0.000201337383731615,0.000159810152055386,0
0.549,0.513199255348369,0.00732444227423933,0.160583496131139,0.964599609599588,0.00860621967223121,0.0214964942241262,2.65273568994506e-006,0,0,-3.86342151766444e-005,0.000217810292383846,0
0.551,0.518082216864528,0.00341807306131169,0.160583496131139,0.96447753928706,0.0115970336008789,0.021540658360277,-3.8220245990168e-005,0,0,0.000153723462647923,0.000123656321111739,0
0.553,0.514175847651601,0.0097659230323191,0.160766601599931,0.964355468974532,0.00390636921292764,0.0215700962563824,-8.40944852505606e-005,0,0,0.00025019977088841,-3.25348018931495e-005,0
0.555,0.512710959196753,0.0146488845484787,0.160705566443667,0.964416504130796,-0.000305185094759972,0.0215761465838779,-0.000107935742781995,0,0,-0.000240145259896629,-9.71037483244716e-005,0
0.557,0.517105624561296,0.0126956999420148,0.160827636756196,0.964538574443324,0.00677510910367138,0.0215634012612737,-0.00012905904194087,0,0,0.000112620673579941,4.05640347277275e-005,0
0.559,0.513199255348369,0.0097659230323191,0.160522460974875,0.96447753928706,-0.011108737449263,0.0215456314151297,-0.000195205820308197,0,0,-0.000306933437978619,7.58927327512348e-005,0
0.561,0.519547105319376,0,0.160766601599931,0.964355468974532,-0.00201422162541581,0.0215262120043167,-8.77416405530395e-005,0,0,0.000341903494201474,-2.30819428007362e-005,0
0.563,0.512222663045137,0.0122074037903989,0.160827636756196,0.964599609599588,-0.00921658986175115,0.0215099492100026,-6.12201611593366e-005,0,0,0.00018995454172841,-0.000139966314107578,0
0.565,0.513687551499985,0.0156254768517106,0.160644531287403,0.964538574443324,0.00170903653065584,0.0214712519783358,-2.22329792595782e-005,0,0,-0.000335988840876345,0.00021181138390139,0
0.567,0.513687551499985,0.00488296151615955,0.160705566443667,0.964660644755853,-0.00610370189519944,0.0214489051363253,-6.17608737111379e-005,0,0,0.000214680553391028,0.000119266470683958,0
0.569,0.513687551499985,0.010742515335551,0.160644531287403,0.964538574443324,-0.000549333170567949,0.0214270195358356,-1.89797098353763e-005,0,0,0.000161656753313641,0.000329707903845296,0
0.571,0.512710959196753,0.00634784997100742,0.160766601599931,0.964416504130796,0.00610370189519944,0.0214027859790014,5.34620645014982e-005,0,0,0.00022546104076463,0.000187533816072466,0
0.573,0.515152439954833,0.00585955381939146,0.160827636756196,0.964355468974532,0.000427259132663961,0.0213799781615848,-1.09567332186617e-006,0,0,-0.00026631553393694,0.000162707232228765,0
0.575,0.515640736106449,0.010742515335551,0.160522460974875,0.964538574443324,-0.00903347880489517,0.021353041503716,-8.07824749727341e-006,0,0,0.000119175656381204,-3.10168882254632e-005,0
0.577,0.514664143803217,0.00732444227423933,0.160522460974875,0.964538574443324,-0.0126956999420148,0.0213310763973701,0.000148765945829937,0,0,0.000390212052100223,6.76090208515096e-005,0
0.578,0.516129032258065,0.00878933072908719,0.160522460974875,0.964355468974532,0.00360118411816767,0.0213294257286533,0.000107932678778908,0,0,0.000383189056958715,8.02383752020366e-005,0
0.579,0.509292886135441,0.0136722922452467,0.160644531287403,0.964416504130796,-0.00128177739799188,0.0213253133155242,0.00021030262883282,0,0,0.000376580463329647,2.60178290597022e-005,0
0.58,0.52150028992584,0.00683614612262337,0.16046142581861,0.964294433818267,-0.00665303506576739,0.021326181100145,0.000166127665073504,0,0,0.000221029514366727,-0.000108177525751353,0
0.581,0.51661732840968,0.00634784997100742,0.160583496131139,0.964538574443324,-0.011230811487167,0.0213252598642763,0.000166709665480639,0,0,0.000288526618535207,-0.000152760006870008,0
0.582,0.515152439954833,0.011230811487167,0.160583496131139,0.96447753928706,0.00457777642139958,0.0213245705596828,0.000213434603991188,0,0,0.000366729112931915,1.83919299226784e-005,0
0.583,0.51661732840968,0.00781273842585528,0.160766601599931,0.964599609599588,-0.00506607257301553,0.0213241698743927,0.000296581261781147,0,0,0.00022494874871311,0.000228167185093111,0
0.584,0.517105624561296,0.00878933072908719,0.160522460974875,0.964538574443324,0.000671407208471938,0.021328250216096,0.000238588977766372,0,0,1.64197324377917e-005,0.000283710584251751,0
0.585,0.517593920712912,0.0122074037903989,0.160522460974875,0.96447753928706,0.0234382152775658,0.0213284190970457,0.000267153660854907,0,0,9.06956503484111e-005,0.000341703663109249,0
0.586,0.514175847651601,0.0146488845484787,0.160705566443667,0.96447753928706,-0.0087282937101352,0.0213292715456641,0.000244595463005044,0,0,0.000315871530300548,0.000155185908426027,0
0.587,0.517593920712912,0.0097659230323191,0.160339355506082,0.964416504130796,-0.00122074037903989,0.0213292886648358,2.77165040079269e-005,0,0,7.91577484460701e-005,6.03950204283043e-005,0
0.588,0.517593920712912,0.0126956999420148,0.160522460974875,0.964538574443324,0.00384533219397565,0.0213183439328842,0.000101016722385095,0,0,0.000290343548336523,8.4553329117153e-006,0
0.589,0.512710959196753,0.0175786614581744,0.160583496131139,0.964416504130796,-0.00952177495651112,0.0213138490236492,0.000105164996859919,0,0,0.000469708874396465,7.28585028766376e-005,0
0.59,0.513199255348369,0.0117191076387829,0.160339355506082,0.96447753928706,-0.0198370311593982,0.0213104799906712,6.54969568783368e-005,0,0,0.000188125618003021,7.97190759218201e-005,0
0.591,0.512222663045137,0.0131839960936308,0.160644531287403,0.964599609599588,-0.00268562883388775,0.0213084233417979,0.000143245331908552,0,0,0.000421587348733298,5.55162461215158e-005,0
0.592,0.51661732840968,0.00927762688070315,0.160400390662346,0.964538574443324,0.00445570238349559,0.0213145631730876,0.00030479427518053,0,0,0.000366020698704681,0.000286518412307494,0
0.593,0.516129032258065,0.0156254768517106,0.160644531287403,0.96447753928706,0.00451673940244758,0.0213322919279377,0.000308733239199003,0,0,0.000277205256721193,0.000334680333211812,0
0.594,0.515152439954833,0.0151371807000946,0.160827636756196,0.96447753928706,-0.00177007354960784,0.0213504723305377,0.000251026958157929,0,0,0.000249076136498236,0.000170915704905524,0
0.595,0.516129032258065,0.010742515335551,0.160583496131139,0.964355468974532,0.000671407208471938,0.0213660545662779,0.000196421702571872,0,0,-0.000230408348040386,9.25953163899963e-005,0
0.596,0.523453474532304,0.00537125766777551,0.160644531287403,0.964294433818267,6.10370189519944e-005,0.0213814245908522,0.000199298409399366,0,0,-0.000146372139055368,-4.12465871525235e-005,0
0.597,0.515640736106449,0.00830103457747124,0.160583496131139,0.964416504130796,0.00097659230323191,0.0213981668714772,0.000181003682739107,0,0,6.1910091558964e-005,-0.000235771115267798,0
0.598,0.514664143803217,0.0170903653065584,0.160644531287403,0.964538574443324,-0.00701925717947935,0.0214110847891552,0.000169106118823113,0,0,5.88381480445326e-005,-0.000154641779303207,0
0.599,0.511734366893521,0.0151371807000946,0.160644531287403,0.964538574443324,-0.00427259132663961,0.0214198421269401,0.000150084594144863,0,0,6.65600959771766e-005,0.000130353427099055,0
0.6,0.516129032258065,0.00878933072908719,0.160583496131139,0.964416504130796,-0.00512710959196753,0.0214287336138923,0.000201002719394945,0,0,1.55405786083695e-005,0.000273649101259686,0
0.601,0.514175847651601,0.0141605883968627,0.160400390662346,0.96447753928706,0.0168462172307505,0.0214447684365541,0.000225107044230205,0,0,9.68079271164791e-005,0.000140991623114973,0
0.602,0.516129032258065,0.0097659230323191,0.160644531287403,0.96447753928706,-0.000183111056855983,0.0214627669786765,0.000255043589302485,0,0,0.000339574390362118,5.07309060961728e-005,0
0.603,0.513687551499985,0.0117191076387829,0.160583496131139,0.964538574443324,0.00122074037903989,0.0214826532700694,9.41830037699712e-005,0,0,0.000229904637058963,9.07911744753226e-005,0
0.604,0.512222663045137,0.0141605883968627,0.160644531287403,0.964416504130796,0.00604266487624744,0.021492651505079,8.98396124652638e-005,0,0,1.83427302614149e-005,0.000151972265689601,0
0.605,0.517593920712912,0.0180669576097903,0.160644531287403,0.964355468974532,-0.0122074037903989,0.0215018157131263,7.36994808013007e-005,0,0,8.53560049788467e-006,6.79575653362558e-005,0
0.606,0.514175847651601,0.0151371807000946,0.160827636756196,0.96447753928706,-0.00402844325083163,0.0215111479448303,1.71168613012089e-005,0,0,-4.65622207404404e-005,-0.000122894364638642,0
0.607,0.51905880916776,0.0117191076387829,0.16046142581861,0.964538574443324,-0.00134281441694388,0.0215203747237538,0.000120994800522067,0,0,-0.000215416365001284,-2.28300267689936e-005,0
0.608,0.516129032258065,0.0136722922452467,0.160522460974875,0.964416504130796,-0.00714133121738334,0.0215398278325844,0.000148027102693824,0,0,5.96981608810699e-006,0.000186824169001872,0
0.609,0.514664143803217,0.00781273842585528,0.160583496131139,0.96447753928706,-0.00793481246375927,0.0215619026703174,0.000150271162093593,0,0,0.000350606036479212,0.000124040379329966,0
0.61,0.518570513016144,0.0122074037903989,0.160583496131139,0.964416504130796,-0.00842310861537523,0.021584362526607,0.000202227099167083,0,0,0.000221565338301751,7.48687396007162e-005,0
0.611,0.512222663045137,0.010742515335551,0.16046142581861,0.964233398662003,-0.000915555284279916,0.0216088864672861,0.000257740520952952,0,0,0.000168220495270028,9.6527487249749e-005,0
0.612,0.515152439954833,0.0141605883968627,0.160949707068724,0.964416504130796,0.00140385143589587,0.0216351767105867,0.000313964068511066,0,0,0.000305642786273816,-0.000158085537558007,0
0.613,0.513687551499985,0.0102542191839351,0.160766601599931,0.964538574443324,-0.000488296151615955,0.0216645078181752,0.000302108631038695,0,0,-0.000108668207144144,-0.000147744388539111,0
0.614,0.515152439954833,0.0043946653645436,0.160583496131139,0.964416504130796,-0.00201422162541581,0.0216933320395297,0.000271056942238004,0,0,-0.000432317841028564,0.000191657613382404,0
0.615,0.516129032258065,0.00830103457747124,0.160705566443667,0.964538574443324,-0.00341807306131169,0.0217202063480852,0.000258224069202623,0,0,-4.39085524345726e-006,0.000185170513071764,0
0.616,0.516129032258065,0.011230811487167,0.160583496131139,0.964355468974532,-0.0021362956633198,0.0217425593769274,0.000259316687277188,0,0,7.14903729543959e-005,0.000183436912157242,0
0.617,0.513199255348369,0.0117191076387829,0.160827636756196,0.96447753928706,-0.0150761436811426,0.0217607640285413,0.000272410297816975,0,0,7.68051004179531e-005,0.000115864955007185,0
0.618,0.516129032258065,0.010742515335551,0.160705566443667,0.964355468974532,-0.00689718314157537,0.0217784679423661,0.000273661103092952,0,0,-3.29269557274385e-005,6.98205675366995e-005,0
0.619,0.514175847651601,0.00488296151615955,0.160522460974875,0.964294433818267,-0.00299081392864772,0.021796326077661,0.000386083946690904,0,0,-0.000129008896231722,9.96136858269534e-005,0
0.62,0.511734366893521,0.0126956999420148,0.160644531287403,0.964355468974532,-0.00286873989074374,0.0218212075784053,0.000421124261063422,0,0,0.000224906760289265,-8.89348535291545e-005,0
0.621,0.515640736106449,0.00732444227423933,0.160583496131139,0.964355468974532,-0.00195318460646382,0.0218455255752323,0.000420377832084437,0,0,0.00028685824712161,-7.39318648019102e-005,0
0.622,0.513199255348369,0.0102542191839351,0.160644531287403,0.964538574443324,0.010803552354503,0.021867959820354,0.000418628768388036,0,0,0.000211286414097073,4.60917254156065e-006,0
0.623,0.515640736106449,0.00830103457747124,0.160583496131139,0.964355468974532,-0.00366222113711966,0.021889490431054,0.000409118094854682,0,0,0.000185844998915823,0.000189959490356219,0
0.624,0.515152439954833,0.0122074037903989,0.160278320349818,0.964233398662003,0.00280770287179174,0.0219087209944766,0.00029052866717812,0,0,0.00016459346786931,0.000168457312490127,0
0.625,0.51661732840968,0.00830103457747124,0.160583496131139,0.964599609599588,-0.0075685903500473,0.0219192017939265,0.000303760239649396,0,0,0.000553084716825713,-0.000170025126339656,0
0.626,0.516129032258065,0.00634784997100742,0.160644531287403,0.964538574443324,0.00354014709921567,0.0219301675427134,0.000260535133535599,0,0,0.000527348290629891,0.000112557369635673,0
0.627,0.51905880916776,0.010742515335551,0.16046142581861,0.964538574443324,0.00256355479598376,0.0219380381989291,0.000309236350773064,0,0,0.000105629424187675,0.000442845069590151,0
0.628,0.513199255348369,0.010742515335551,0.160766601599931,0.96447753928706,-0.00207525864436781,0.0219464529010371,0.000259369965049629,0,0,0.000222910254963717,0.000341382021587268,0
0.629,0.517593920712912,0.00341807306131169,0.160766601599931,0.964416504130796,-0.00354014709921567,0.0219502093673921,0.000221033050614005,0,0,7.72465481098815e-005,0.00025456836411168,0
0.63,0.510757774590289,0.0151371807000946,0.160766601599931,0.96447753928706,0.00415051728873562,0.0219518583138756,0.000224987216420796,0,0,-0.000248597747031692,0.000116123325911066,0
0.631,0.515152439954833,0.00732444227423933,0.160522460974875,0.96447753928706,-0.011169774468215,0.0219513069822721,0.000241287345462816,0,0,-0.000233644732928269,0.000108858241304017,0
0.632,0.518570513016144,0.00537125766777551,0.160705566443667,0.964416504130796,0.00451673940244758,0.021951219119494,0.00019044265049065,0,0,5.61014594873362e-005,0.0001795384611475,0
0.633,0.514664143803217,0.0126956999420148,0.160949707068724,0.96447753928706,-0.00402844325083163,0.021948857359898,0.000274509168208113,0,0,0.000129376237833288,0.00011315945916518,0
0.634,0.513687551499985,0.0122074037903989,0.160583496131139,0.964416504130796,-0.00537125766777551,0.0219489608860965,0.000218428481850381,0,0,-0.000341118856098416,0.000106122093425212,0
0.635,0.519547105319376,0.00292977690969573,0.160827636756196,0.964599609599588,0.00994903408917508,0.0219448416068559,0.000239338845272674,0,0,-0.000173528330294151,0.000114333331903736,0
0.636,0.512222663045137,0.011230811487167,0.160644531287403,0.96447753928706,-0.010376293221839,0.0219440992358618,0.00027048024837961,0,0,-3.71868626348459e-005,0.00023313882673298,0
0.637,0.514175847651601,0.0097659230323191,0.160766601599931,0.964416504130796,-0.000549333170567949,0.021943492634587,0.000167948433136423,0,0,-9.98115743809983e-005,0.000286180637690564,0
0.638,0.518570513016144,0.00878933072908719,0.160583496131139,0.96447753928706,-0.00830103457747124,0.0219342771291814,0.000246606331696864,0,0,-1.07606914885086e-005,8.74491491087038e-005,0
0.639,0.517593920712912,0.00537125766777551,0.160827636756196,0.964416504130796,-0.00164799951170385,0.0219307848305692,0.000235834502947196,0,0,6.96493493984994e-005,9.58093183557104e-005,0
0.64,0.515640736106449,0.00488296151615955,0.160766601599931,0.96447753928706,-0.0154423657948546,0.0219262736875841,0.000292384911976684,0,0,1.4587553188418e-005,0.000105221026774606,0
0.641,0.516129032258065,0.0097659230323191,0.160522460974875,0.964538574443324,-0.00732444227423933,0.0219233574801784,0.000288182538297205,0,0,-0.000158647119738792,0.000124666496077754,0
0.642,0.512222663045137,0.00390636921292764,0.160827636756196,0.964538574443324,0,0.0219168197727489,0.000402841575912068,0,0,0.000215553538215783,0.00028340688210503,0
0.643,0.512222663045137,0.0097659230323191,0.160644531287403,0.964660644755853,0.00665303506576739,0.0219161327505268,0.000440502347204261,0,0,0.000147198436051392,0.000343052524305058,0
0.644,0.516129032258065,0.011230811487167,0.161010742224988,0.964355468974532,-0.00225836970122379,0.0219160948177662,0.000412824768446942,0,0,-4.07548716774481e-006,0.000444116027110159,0
0.645,0.52150028992584,0.00195318460646382,0.160644531287403,0.964599609599588,0.000183111056855983,0.0219126862827007,0.000329686607533809,0,0,-0.00020875291326635,0.000212135645289598,0
0.646,0.513199255348369,0.00341807306131169,0.160705566443667,0.96447753928706,0.011413922544023,0.0219052839781476,0.000328388170366515,0,0,-0.000193021930445227,0.000136159796291414,0
0.647,0.516129032258065,0.0097659230323191,0.160583496131139,0.964294433818267,-0.00280770287179174,0.0218960219030286,0.000306180631745503,0,0,0.00013157699826814,0.000242504256932251,0
0.648,0.517105624561296,0,0.160705566443667,0.964416504130796,-0.0043336283455916,0.02188072646633,0.000188811284459841,0,0,0.000176725386400201,-0.000115507542362067,0
0.649,0.518082216864528,0.00195318460646382,0.16046142581861,0.964355468974532,-0.0178838465529344,0.021856665325207,0.000201087208943456,0,0,0.000176737753371227,-0.000163760032580379,0
0.65,0.515152439954833,0.00830103457747124,0.160644531287403,0.964416504130796,0.00738547929319132,0.0218309130678474,0.000225710992260494,0,0,0.000331410497725396,-5.4411944147145e-005,0
0.651,0.513199255348369,0.00341807306131169,0.160583496131139,0.964538574443324,0.00347911008026368,0.0218014491049511,0.000365285917544141,0,0,0.000392821894332308,-3.55641135380001e-005,0
0.652,0.511246070741905,0.00927762688070315,0.160766601599931,0.964416504130796,0.0167851802117985,0.0217791169932471,0.000278837505326024,0,0,0.000220177220299929,0.000148223250606703,0
0.653,0.517105624561296,0.00097659230323191,0.160705566443667,0.964416504130796,0.00299081392864772,0.0217501922027699,0.000231405902509945,0,0,4.40663784906079e-005,0.000108629942906243,0
0.654,0.513687551499985,0.00634784997100742,0.16046142581861,0.964355468974532,-0.00671407208471938,0.0217176742357614,7.25552837576136e-005,0,0,-0.000120392893908602,-5.97624163193629e-005,0
0.655,0.513199255348369,0.00927762688070315,0.160400390662346,0.96447753928706,-0.0123294778283029,0.0216736107900356,4.22829121118523e-005,0,0,0.000223039854787208,-0.000116425872928684,0
0.656,0.511734366893521,0.00781273842585528,0.160583496131139,0.96447753928706,-0.00457777642139958,0.0216252133339906,9.73505812249448e-005,0,0,0.000568475553936477,-1.45790579225989e-005,0
0.657,0.519547105319376,0.00195318460646382,0.160644531287403,0.96447753928706,-0.0136722922452467,0.0215812885765671,0.000197236821377503,0,0,0.000427016829580571,0.00014374924748245,0
0.658,0.516129032258065,0.00781273842585528,0.160522460974875,0.964599609599588,-0.0157475508896146,0.0215451883252875,0.000224201600147058,0,0,0.00016389521040635,0.000162152215031224,0
0.659,0.512710959196753,0.0043946653645436,0.160766601599931,0.964538574443324,-0.0161137730033265,0.0215093350474167,0.000327662432283564,0,0,0.000263707909633878,0.000328138213228777,0
0.66,0.513687551499985,0.011230811487167,0.16046142581861,0.964416504130796,-0.00830103457747124,0.0214786713211378,0.000442464710583566,0,0,0.000162623966737438,0.000421330658737094,0
0.661,0.517105624561296,0.00927762688070315,0.160705566443667,0.964538574443324,-0.00555436872463149,0.0214549338509129,0.000553202351701169,0,0,0.000254444126218648,0.000233122433171317,0
0.662,0.516129032258065,0.00732444227423933,0.160400390662346,0.964416504130796,0.0032349620044557,0.0214391793382212,0.000589811950688036,0,0,0.000324622196204344,0.000238532260165684,0
0.663,0.514664143803217,0.000488296151615955,0.16046142581861,0.964599609599588,0.00122074037903989,0.0214284385813091,0.000600506780479925,0,0,0.000373113486187635,0.00022620086260492,0
0.664,0.513199255348369,0.00634784997100742,0.160400390662346,0.964599609599588,0.00482192449720756,0.0214193608877765,0.000534963169496369,0,0,0.000606684602173657,0.000270520252766233,0
0.665,0.514664143803217,0.00292977690969573,0.160522460974875,0.964660644755853,0.0151371807000946,0.0214036880388341,0.000490855099898232,0,0,0.0005594300931896,0.000441945579652904,0
0.666,0.516129032258065,0.00830103457747124,0.160522460974875,0.964660644755853,0.00201422162541581,0.0213826218175612,0.000418557162164487,0,0,0.000428195239284086,0.000450001892071395,0
0.667,0.513199255348369,0.0102542191839351,0.160522460974875,0.964538574443324,-0.00463881344035157,0.0213555061132054,0.00026211619511359,0,0,0.000243290424786655,0.000461970015921401,0
0.668,0.51661732840968,0.00341807306131169,0.16046142581861,0.964538574443324,-0.00714133121738334,0.0213178596343025,0.000228329634004169,0,0,0.00023158903708915,0.000304812854505685,0
0.669,0.516129032258065,0.0146488845484787,0.160339355506082,0.964538574443324,-0.00207525864436781,0.0212804046804131,0.000253865560855852,0,0,0.000300369352395973,0.000170931159968725,0
0.67,0.518082216864528,0.0043946653645436,0.160766601599931,0.964660644755853,-0.00689718314157537,0.0212449167397736,0.000299312469887252,0,0,0.000493146620351779,0.000173392193725788,0
0.671,0.515152439954833,0.00927762688070315,0.160522460974875,0.964599609599588,-0.00360118411816767,0.0212142946725081,0.000298348194723722,0,0,0.000145196782717827,0.000307391007690483,0
0.672,0.511734366893521,0.00927762688070315,0.160705566443667,0.964721679912117,0.00347911008026368,0.0211858143691473,0.000338901108972985,0,0,-4.72133447865653e-005,0.000369368799643401,0
0.673,0.515152439954833,0.0122074037903989,0.160339355506082,0.964416504130796,-0.010864589373455,0.0211599355631078,0.000348568584172005,0,0,2.07237774642317e-005,0.000411928547531682,0
0.674,0.51661732840968,0.00781273842585528,0.160583496131139,0.964782715068381,-0.00970488601336711,0.0211365861053831,0.000296755648455338,0,0,0.000227548404309627,0.000198519025842679,0
0.675,0.514664143803217,0.0097659230323191,0.160339355506082,0.96447753928706,-0.00842310861537523,0.0211128499705491,0.000371518487921682,0,0,0.000375403305515055,0.000282075221268089,0
0.676,0.513687551499985,0.011230811487167,0.160522460974875,0.964538574443324,-0.00842310861537523,0.0210960117329301,0.000431613264426604,0,0,0.00037827263299891,0.000356697033285735,0
0.677,0.514175847651601,0.0117191076387829,0.160339355506082,0.964660644755853,0.00952177495651112,0.0210840416199232,0.000476912065313591,0,0,0.000444952092992158,9.43552414668107e-005,0
0.678,0.516129032258065,0.011230811487167,0.160522460974875,0.964416504130796,-0.00885036774803919,0.0210772351270809,0.000519364658598919,0,0,0.000414460540368871,0.000283422724685089,0
0.679,0.51905880916776,0.0117191076387829,0.16046142581861,0.964721679912117,-0.011352885525071,0.0210759908798422,0.000404868344477704,0,0,0.000386488008859352,0.000131298523996122,0
0.68,0.514175847651601,0.0141605883968627,0.160339355506082,0.964660644755853,-0.0132450331125828,0.0210700983218087,0.000455520948062069,0,0,0.000259386891688481,0.00021794441137095,0
0.681,0.515640736106449,0.0151371807000946,0.160278320349818,0.964660644755853,-0.00604266487624744,0.0210698790565918,0.00052450640648403,0,0,0.000476771351548078,0.000503920585643608,0
0.682,0.516129032258065,0.0156254768517106,0.160278320349818,0.964721679912117,-0.00714133121738334,0.0210774480564826,0.000605425161335287,0,0,0.000672735695410921,0.000433962574624787,0
0.683000000000001,0.517593920712912,0.00732444227423933,0.160095214881025,0.964660644755853,-0.00549333170567949,0.0210946344298831,0.000619337121103216,0,0,0.000715312597606559,0.000491085071140566,0
0.684000000000001,0.515152439954833,0.0146488845484787,0.160278320349818,0.964660644755853,-0.00988799707022309,0.0211173714400253,0.000641820774759234,0,0,0.000886497199705963,0.000477727820991193,0
0.685000000000001,0.518082216864528,0.0146488845484787,0.160339355506082,0.964843750224645,-0.00903347880489517,0.0211428788269984,0.000648723026641969,0,0,0.000853064884811228,0.00040312982288005,0
0.686000000000001,0.514175847651601,0.0190435499130222,0.160339355506082,0.964660644755853,-0.00402844325083163,0.0211696940093058,0.00069297482964921,0,0,0.000562577444245939,0.00060252138513243,0
0.687000000000001,0.515152439954833,0.00927762688070315,0.160156250037289,0.964599609599588,-0.00952177495651112,0.0212028966758035,0.000727099470238276,0,0,0.000479044387957723,0.00058262214070064,0
0.688000000000001,0.517105624561296,0.00634784997100742,0.160156250037289,0.964660644755853,-0.0064699240089114,0.0212432584869137,0.000716049092856295,0,0,0.0006654950224402,0.000300293186288937,0
0.689000000000001,0.513687551499985,0.0122074037903989,0.160400390662346,0.964965820537174,-0.0157475508896146,0.0212855170593409,0.0007529220716632,0,0,0.000844137275361159,0.000302981467839391,0
0.690000000000001,0.511246070741905,0.0185552537614063,0.160339355506082,0.964721679912117,-0.00927762688070315,0.02132765890412,0.000761239897049594,0,0,0.000558626219410993,0.000711107762427264,0
0.691000000000001,0.513687551499985,0.00927762688070315,0.160278320349818,0.964843750224645,-0.010681478316599,0.0213691392254447,0.000848799699788175,0,0,0.000360593888693925,0.000768055028869893,0
0.692000000000001,0.519547105319376,0.00781273842585528,0.160339355506082,0.964782715068381,-0.00555436872463149,0.0214197814340915,0.000875232643498441,0,0,0.000497154238733484,0.000615525162072663,0
0.693000000000001,0.51661732840968,0.0146488845484787,0.160156250037289,0.964904785380909,-0.00891140476699118,0.0214742779478615,0.000912074400056794,0,0,0.000487516054223977,0.000664743170118238,0
0.694000000000001,0.513687551499985,0.0156254768517106,0.160156250037289,0.964904785380909,-0.00781273842585528,0.0215289300292076,0.000902520882979389,0,0,0.000607817137666568,0.000708180803126954,0
0.695000000000001,0.512222663045137,0.0180669576097903,0.160339355506082,0.964721679912117,-0.010986663411359,0.0215829276245693,0.000922429822500486,0,0,0.00079012951860486,0.000818312105601781,0
0.696000000000001,0.514175847651601,0.0200201422162542,0.160034179724761,0.964721679912117,-0.00524918362987152,0.0216411542739316,0.000931642038358612,0,0,0.00056791083136162,0.000594376589948381,0
0.697000000000001,0.518570513016144,0.00781273842585528,0.160339355506082,0.964782715068381,-0.0178838465529344,0.0217040555599196,0.000967563323690622,0,0,0.000685571857264716,0.000380089777888735,0
0.698000000000001,0.520035401470992,0.0141605883968627,0.160095214881025,0.964965820537174,-0.0086672566911832,0.0217746945415413,0.000951899499132964,0,0,0.000674141634672215,0.000453336048765306,0
0.699000000000001,0.514664143803217,0.0244148075807978,0.160339355506082,0.964721679912117,0.00372325815607166,0.0218454024349814,0.00104584665485037,0,0,0.000602273223281791,0.000725254279802456,0
0.700000000000001,0.51661732840968,0.0141605883968627,0.160400390662346,0.964843750224645,0.00781273842585528,0.0219207517573603,0.00105465110206517,0,0,0.000568246865672984,0.000617669036237203,0
0.701000000000001,0.512710959196753,0.0156254768517106,0.160095214881025,0.964782715068381,-0.0223395489364299,0.0220017195245273,0.000956374624860969,0,0,0.000181242719122735,0.000425855544378677,0
0.702000000000001,0.515640736106449,0.0146488845484787,0.160156250037289,0.964904785380909,-0.000610370189519944,0.0220811507156973,0.000829113644015592,0,0,0.000451616265048377,0.000483126395299836,0
0.703000000000001,0.518082216864528,0.0117191076387829,0.160217285193553,0.964843750224645,-0.00708029419843135,0.0221535517810371,0.000969083662058372,0,0,0.000718035378686429,0.000549424615820736,0
0.704000000000001,0.514664143803217,0.0136722922452467,0.160156250037289,0.964782715068381,-0.0136112552262947,0.0222360546755237,0.000913442010956402,0,0,0.000548767426369771,0.000588629460623134,0
0.705000000000001,0.51905880916776,0.0224616229743339,0.160278320349818,0.964965820537174,0.00421155430768761,0.0223145111105079,0.000916921742268791,0,0,0.00054138804099642,0.000446687519458083,0
0.706000000000001,0.513687551499985,0.0175786614581744,0.160095214881025,0.964843750224645,-0.0164189580980865,0.0223923421280436,0.000976332917098955,0,0,0.00045130497478113,0.000560574782148876,0
0.707000000000001,0.514175847651601,0.00927762688070315,0.160217285193553,0.964843750224645,-0.00738547929319132,0.0224771893865308,0.000878779179651997,0,0,0.000502995547902433,0.000605608851036454,0
0.708000000000001,0.512710959196753,0.0136722922452467,0.160339355506082,0.964965820537174,-0.00494399853511155,0.0225603005421293,0.000964726209739374,0,0,0.000568835388019298,0.000466996330975641,0
0.709000000000001,0.51905880916776,0.011230811487167,0.160339355506082,0.964843750224645,0.000366222113711966,0.0226480789828816,0.000967607495392307,0,0,0.000282940939647949,0.000583708434456342,0
0.710000000000001,0.516129032258065,0.0141605883968627,0.160095214881025,0.964782715068381,-0.0122074037903989,0.0227337468456196,0.000949317059861399,0,0,0.000134897908284203,0.00054947747019076,0
0.711000000000001,0.517593920712912,0.0170903653065584,0.160400390662346,0.964904785380909,-0.00915555284279916,0.0228167876847702,0.000886521107137583,0,0,0.000403153332631735,0.000330007680047596,0
0.712000000000001,0.512222663045137,0.0166020691549425,0.160278320349818,0.964843750224645,-0.00817896053956725,0.0228945980669284,0.000935772766524054,0,0,0.000338925266946122,0.000402369743475812,0
0.713000000000001,0.515152439954833,0.0205084383678701,0.160217285193553,0.964782715068381,-0.00567644276253548,0.022976617366,0.000955691497050616,0,0,0.000140272895145207,0.000464120933828248,0
0.714000000000001,0.517593920712912,0.0141605883968627,0.159973144568497,0.964904785380909,-0.00354014709921567,0.0230618342254733,0.000965962422960541,0,0,0.000344784165820592,0.000318568416177472,0
0.715000000000001,0.518082216864528,0.0146488845484787,0.160095214881025,0.965026855693438,-0.00793481246375927,0.0231507962572277,0.00095407255577907,0,0,0.000661926077271395,0.000373038863809251,0
0.716000000000001,0.515640736106449,0.0097659230323191,0.160156250037289,0.964904785380909,0.000488296151615955,0.0232408498145566,0.00092456290190173,0,0,0.000764882631900514,0.000625728104018322,0
0.717000000000001,0.517105624561296,0.0156254768517106,0.160095214881025,0.964782715068381,-0.00500503555406354,0.0233284496038107,0.000934690626661678,0,0,0.000525124497188039,0.000592648349855497,0
0.718000000000001,0.517105624561296,0.0102542191839351,0.160278320349818,0.964965820537174,-0.00781273842585528,0.0234144760656311,0.000871764145606279,0,0,0.000493750946332338,0.000292892900846916,0
0.719000000000001,0.515640736106449,0.0180669576097903,0.160400390662346,0.964965820537174,-0.000915555284279916,0.023494781215906,0.000860020492463712,0,0,0.000344591156774289,0.000354170350173267,0
0.720000000000001,0.515640736106449,0.0166020691549425,0.160217285193553,0.964904785380909,-0.00585955381939146,0.023572904326097,0.000873154002177017,0,0,1.05932323847268e-007,0.000537638532526468,0
0.721000000000001,0.513687551499985,0.0234382152775658,0.160095214881025,0.964843750224645,0.011230811487167,0.0236514468111455,0.00082616362495332,0,0,7.00387264642454e-005,0.000442691647517469,0
0.722000000000001,0.514175847651601,0.0229499191259499,0.160339355506082,0.964843750224645,-0.00146488845484787,0.023729010803673,0.000824631876657879,0,0,0.000381751987306135,0.000269233783319979,0
0.723000000000001,0.513687551499985,0.0131839960936308,0.160156250037289,0.964721679912117,-0.00769066438795129,0.0238104156969347,0.000676261578277021,0,0,0.000205510143542877,0.000165913448877567,0
0.724000000000001,0.514175847651601,0.0161137730033265,0.160095214881025,0.964904785380909,0.00183111056855983,0.0238884678028882,0.000646365220952841,0,0,0.000134559682161632,3.13080220751864e-005,0
0.725000000000001,0.512710959196753,0.0224616229743339,0.160156250037289,0.965026855693438,-0.0185552537614063,0.0239663832606327,0.00067187355306038,0,0,0.000393279485879087,9.81163589528608e-005,0
0.726000000000001,0.515640736106449,0.0151371807000946,0.160217285193553,0.964843750224645,-0.0126956999420148,0.02404493139819,0.000613915479191387,0,0,0.000388236122419137,0.000441389354761098,0
0.727000000000001,0.514664143803217,0.0117191076387829,0.160217285193553,0.964904785380909,-0.00549333170567949,0.0241223991800493,0.000734871235473815,0,0,0.00027301840557009,0.000389000765413156,0
0.728000000000001,0.509781182287057,0.00927762688070315,0.160217285193553,0.964904785380909,0.00250251777703177,0.0242095835716747,0.000797849474248428,0,0,0.000211056838397675,0.000253906659279753,0
0.729000000000001,0.51661732840968,0.0126956999420148,0.160156250037289,0.964843750224645,-0.0075685903500473,0.0242984446988721,0.000794948153809875,0,0,0.000196029728119488,0.000302336340297974,0
0.730000000000001,0.516129032258065,0.0195318460646382,0.160705566443667,0.965026855693438,-0.00811792352061525,0.0243827015140258,0.000723484636426284,0,0,0.000251108911222777,0.000218805293097073,0
0.731000000000001,0.513687551499985,0.0166020691549425,0.160278320349818,0.964904785380909,-0.00988799707022309,0.0244586215323006,0.000743097878518461,0,0,-0.000275860564467629,0.000354474881824765,0
0.732000000000001,0.511246070741905,0.0239265114291818,0.160278320349818,0.965026855693438,-0.00158696249275185,0.0245361146524392,0.000766201688315325,0,0,-0.000370954939126971,0.000419183054451627,0
0.733000000000001,0.514175847651601,0.0224616229743339,0.16046142581861,0.965026855693438,0.010925626392407,0.0246168652840108,0.000803072089313235,0,0,0.000124433122297953,0.000403967611850503,0
0.734000000000001,0.513687551499985,0.0161137730033265,0.160095214881025,0.964904785380909,-0.00262459181493576,0.0247033447882444,0.000766257526825019,0,0,-0.000102285807088156,0.000490555580204702,0
0.735000000000001,0.517105624561296,0.011230811487167,0.160034179724761,0.964965820537174,0.0190435499130222,0.0247928213994241,0.000624178832599401,0,0,8.28954759354405e-005,0.000309286523054031,0
0.736000000000001,0.51905880916776,0.00830103457747124,0.160217285193553,0.964965820537174,-0.00311288796655171,0.0248751828520782,0.000607525505916055,0,0,0.000509018714909729,0.000193081506921411,0
0.737000000000001,0.517593920712912,0.0224616229743339,0.160095214881025,0.965026855693438,-0.00427259132663961,0.0249539744609686,0.00040562621218808,0,0,0.000315507112871165,0.00021701754262185,0
0.738000000000001,0.511246070741905,0.0131839960936308,0.160339355506082,0.965026855693438,-0.0032959990234077,0.0250145428837255,0.000406903088572282,0,0,0.000234984764903311,0.00027462922596095,0
0.739000000000001,0.513687551499985,0.0195318460646382,0.160278320349818,0.965087890849702,0.00604266487624744,0.0250744877377521,0.000418070311663963,0,0,9.35451439971866e-005,0.000328975898800867,0
0.740000000000001,0.515152439954833,0.0209967345194861,0.160339355506082,0.964965820537174,-0.0117191076387829,0.025136388800231,0.000420139603568313,0,0,-0.000120836073231761,0.000364521174010853,0
0.741000000000001,0.515152439954833,0.0170903653065584,0.160156250037289,0.964904785380909,0.0098269600512711,0.0251984979199201,0.000341789509176349,0,0,-0.000111267003962981,0.000278456104278928,0
0.742000000000001,0.512222663045137,0.00830103457747124,0.160400390662346,0.964904785380909,-0.00817896053956725,0.0252586143583028,0.000421069527356078,0,0,2.4168075520598e-005,5.98144142663594e-005,0
0.743000000000001,0.508316293832209,0.0195318460646382,0.16046142581861,0.964904785380909,-0.00280770287179174,0.0253256071948295,0.000310125442895406,0,0,-5.21324316756367e-005,-1.86575985863164e-005,0
0.744000000000001,0.512710959196753,0.0205084383678701,0.160278320349818,0.964965820537174,-0.000610370189519944,0.0253823735776422,0.00036095848026815,0,0,-0.000369063072181928,-7.29186544443389e-006,0
0.745000000000001,0.515152439954833,0.0136722922452467,0.160217285193553,0.965026855693438,0.00140385143589587,0.0254404672619979,0.000362418077438016,0,0,-0.000215624089418577,5.8041599642509e-005,0
0.746000000000001,0.512222663045137,0.0180669576097903,0.16046142581861,0.964965820537174,-0.0133060701315348,0.0255015164402792,0.000344894349212627,0,0,5.42975081363717e-005,0.000179157777291881,0
0.747000000000001,0.514664143803217,0.0195318460646382,0.160278320349818,0.964843750224645,-0.00939970091860714,0.0255617569602477,0.00031115435445406,0,0,-0.000135620097086628,0.00017983528445341,0
0.748000000000001,0.511734366893521,0.0141605883968627,0.160400390662346,0.965087890849702,0.00494399853511155,0.0256191906180447,0.000406003181207706,0,0,-0.000165715526164702,-1.61131135282619e-006,0
0.749000000000001,0.515640736106449,0.0205084383678701,0.160217285193553,0.964965820537174,-0.00427259132663961,0.0256842709134454,0.000461307384947474,0,0,-8.93680413449769e-005,0.000130806382815422,0
0.750000000000001,0.511734366893521,0.0136722922452467,0.160400390662346,0.965087890849702,0.00524918362987152,0.0257528177163901,0.00038981645066477,0,0,-2.53565835128905e-005,0.000247472361848454,0
0.751000000000001,0.51661732840968,0.0195318460646382,0.160339355506082,0.96520996116223,-0.00402844325083163,0.025817083706175,0.000402057258878947,0,0,-3.17220998916034e-005,0.000224486636524305,0
0.752000000000001,0.513687551499985,0.0131839960936308,0.160156250037289,0.96520996116223,0.0180669576097903,0.0258821878024696,0.000331665284228486,0,0,-0.000170150435248951,0.000466853277521149,0
0.753000000000001,0.51905880916776,0.0126956999420148,0.160400390662346,0.965087890849702,-0.00830103457747124,0.0259424560709481,0.000345460769521438,0,0,7.70984409237553e-005,0.000543162887748349,0
0.754000000000001,0.51661732840968,0.010742515335551,0.160400390662346,0.965026855693438,-0.0161137730033265,0.0260030612248634,0.000168423762672723,0,0,-1.44754023557403e-005,0.000357130185362536,0
0.755000000000001,0.508804589983825,0.0185552537614063,0.159973144568497,0.964904785380909,-0.00769066438795129,0.0260492550744086,0.000229209713430597,0,0,-0.000247315585049978,0.000167719631782201,0
0.756000000000001,0.515640736106449,0.0180669576097903,0.160095214881025,0.964965820537174,-0.00347911008026368,0.0260954640588405,0.000353346561196143,0,0,0.000259660632186245,-1.12584803254913e-005,0
0.757000000000001,0.516129032258065,0.0166020691549425,0.160400390662346,0.965087890849702,-0.0134891811883908,0.0261483002384252,0.000397265798680809,0,0,0.00058449881641694,-6.63191449356347e-005,0
0.758000000000001,0.515640736106449,0.0180669576097903,0.160339355506082,0.965026855693438,-0.00531022064882351,0.0262054841007435,0.000402216578038175,0,0,0.000105368572227923,0.000154868366630883,0
0.759000000000001,0.518082216864528,0.0156254768517106,0.160217285193553,0.964965820537174,-0.00811792352061525,0.0262635469473281,0.00049291809788922,0,0,-0.000143747041604281,0.000233072916957708,0
0.760000000000001,0.515152439954833,0.0175786614581744,0.160217285193553,0.965026855693438,-0.0128788109988708,0.0263278769864627,0.000507601879537021,0,0,7.65978751697593e-005,0.00010012709902912,0
0.761000000000001,0.518082216864528,0.0205084383678701,0.160339355506082,0.965026855693438,0.00378429517502365,0.0263931533605446,0.000545502339340882,0,0,0.000228711779186241,0.000118673410310528,0
0.762000000000001,0.51661732840968,0.0200201422162542,0.160339355506082,0.964782715068381,-0.0032349620044557,0.0264606402738584,0.000621953278123715,0,0,8.92986686250859e-005,0.000184164980496989,0
0.763000000000001,0.517105624561296,0.0102542191839351,0.160156250037289,0.965026855693438,-0.000671407208471938,0.0265346139140725,0.000550339239901217,0,0,-5.61164413798106e-005,-9.91634389584658e-005,0
0.764000000000001,0.515640736106449,0.0166020691549425,0.160217285193553,0.965270996318495,-0.000915555284279916,0.0266064012468547,0.000543573062823924,0,0,0.000144389259414182,-9.4236756000516e-005,0
0.765000000000001,0.511246070741905,0.0195318460646382,0.160156250037289,0.964965820537174,-0.00915555284279916,0.0266760771409916,0.00051519179829022,0,0,0.000263144340421481,0.000435457672435647,0
0.766000000000001,0.514175847651601,0.0161137730033265,0.160156250037289,0.965148926005966,-0.00524918362987152,0.0267410697067544,0.000490692849666394,0,0,0.000255274629853505,0.000351023849594896,0
0.767000000000001,0.517105624561296,0.0166020691549425,0.160095214881025,0.965087890849702,-0.00836207159642323,0.0268054210221381,0.000538576776134163,0,0,0.000320395079279279,0.000212110085458828,0
0.768000000000001,0.513199255348369,0.0180669576097903,0.160278320349818,0.965087890849702,0.000854518265327921,0.0268734851019227,0.00054986697130235,0,0,0.000380267865198994,0.00034464650176586,0
0.769000000000001,0.514175847651601,0.011230811487167,0.160339355506082,0.965026855693438,0.00378429517502365,0.0269416463204014,0.000587210905537049,0,0,0.00022906097725353,0.000261676717109681,0
0.770000000000001,0.511734366893521,0.021973326822718,0.160095214881025,0.964965820537174,0.00292977690969573,0.0270123324602318,0.000542968616564726,0,0,-6.32981394403985e-005,0.000165532070192876,0
0.771000000000001,0.518570513016144,0.0190435499130222,0.160278320349818,0.965026855693438,0.000366222113711966,0.0270782864177414,0.000476317330992228,0,0,0.000121600911184826,6.15563391375893e-006,0
0.772000000000001,0.515152439954833,0.0195318460646382,0.160217285193553,0.964965820537174,0.00469985045930357,0.0271397255410982,0.00042120060883533,0,0,0.000168332121482843,-6.14757301403569e-006,0
0.773000000000001,0.516129032258065,0.0156254768517106,0.16046142581861,0.965026855693438,-0.00244148075807978,0.0272003284954589,0.000391587191367182,0,0,1.14371285600668e-005,-2.0279363992881e-005,0
0.774000000000001,0.511734366893521,0.0224616229743339,0.160156250037289,0.965148926005966,-0.0010376293221839,0.0272605430771074,0.000326575974510355,0,0,-0.00019766852098522,-2.92515492307965e-005,0
0.775000000000001,0.516129032258065,0.0253913998840297,0.160156250037289,0.965087890849702,-0.00463881344035157,0.0273167360053237,0.000327047285530179,0,0,-0.000121104770276914,0.00016918680513784,0
0.776000000000001,0.517593920712912,0.0185552537614063,0.160278320349818,0.965148926005966,0.00311288796655171,0.0273742393025654,0.000315419339521708,0,0,0.00021836612986883,0.000226705230543021,0
0.777000000000001,0.515152439954833,0.0185552537614063,0.16046142581861,0.964965820537174,0.0054322946867275,0.0274358902501475,0.000335483258792248,0,0,6.84559578835454e-005,0.000208421294917346,0
0.778000000000001,0.510757774590289,0.021485030671102,0.160156250037289,0.964965820537174,0.000793481246375927,0.0275017676777128,0.000287641101017294,0,0,-0.000285588741459654,4.40515365892539e-005,0
0.779000000000001,0.518570513016144,0.0170903653065584,0.160278320349818,0.965087890849702,0.00799584948271126,0.0275647301271662,0.000222863804236608,0,0,-0.000151997448626017,-0.000172773810864763,0
0.780000000000001,0.518082216864528,0.0161137730033265,0.160156250037289,0.96520996116223,0.0097659230323191,0.0276249065897919,0.000202038885917005,0,0,3.57807216050953e-005,-4.97971041176676e-005,0
0.781000000000001,0.51661732840968,0.0161137730033265,0.160156250037289,0.964965820537174,-0.00360118411816767,0.0276843984751837,0.000120599916037732,0,0,5.94864953681808e-007,0.000184498750323655,0
0.782000000000001,0.515152439954833,0.0185552537614063,0.159912109412232,0.965087890849702,0.00537125766777551,0.0277371384442487,2.90596611646295e-005,0,0,0.000117273743681756,2.57060855606985e-005,0
0.783000000000001,0.517593920712912,0.0185552537614063,0.159973144568497,0.965026855693438,0.00531022064882351,0.0277822550001053,5.8195048687897e-005,0,0,0.000365661810208394,-0.00011673043867833,0
0.784000000000001,0.511734366893521,0.0185552537614063,0.160095214881025,0.96520996116223,-0.00360118411816767,0.0278285268068082,8.35903967175143e-006,0,0,0.000519550764318816,-6.55893247437866e-005,0
0.785000000000001,0.517105624561296,0.021973326822718,0.160278320349818,0.965026855693438,-0.00854518265327921,0.027871867570028,-3.78209134315311e-005,0,0,0.000281247287481369,6.20883904769226e-005,0
0.786000000000001,0.517593920712912,0.0161137730033265,0.160278320349818,0.965148926005966,-0.011169774468215,0.0279125422426135,-4.48329547188028e-006,0,0,-5.38556078903752e-005,7.06718244461481e-005,0
0.787000000000001,0.510757774590289,0.0224616229743339,0.160095214881025,0.965148926005966,-0.00463881344035157,0.0279568942352629,6.92657946251163e-005,0,0,-0.000225144962670241,2.39307387424273e-005,0
0.788000000000001,0.512222663045137,0.0126956999420148,0.160095214881025,0.965087890849702,0.00701925717947935,0.0280063480104741,0.000160946078746025,0,0,4.40057733880371e-006,0.000172235952168441,0
0.789000000000001,0.511734366893521,0.0161137730033265,0.160278320349818,0.965087890849702,-0.00952177495651112,0.0280622596853363,0.000190715839241143,0,0,0.000192592588926127,8.59352826881002e-005,0
0.790000000000001,0.513687551499985,0.0190435499130222,0.160217285193553,0.965148926005966,-0.00274666585283975,0.0281193459423862,0.000118384591233748,0,0,-1.97033661382957e-005,1.22709215281913e-005,0
0.791000000000001,0.515640736106449,0.0161137730033265,0.160095214881025,0.965148926005966,-0.00506607257301553,0.0281686774993962,0.000192809938192829,0,0,-0.000138348699838088,8.98791336258666e-005,0
0.792000000000001,0.510757774590289,0.0229499191259499,0.160034179724761,0.965026855693438,-0.00610370189519944,0.0282222243035732,0.000204309852735932,0,0,7.38145374898131e-005,0.000156004936875567,0
0.793000000000001,0.513199255348369,0.0131839960936308,0.160339355506082,0.965026855693438,0.0194097720267342,0.0282759255571716,0.00023502835677181,0,0,0.000278049682988676,2.48976076283293e-005,0
0.794000000000001,0.513687551499985,0.0166020691549425,0.160034179724761,0.96520996116223,-0.0120242927335429,0.028332561492603,0.00027273780125901,0,0,-2.93741697259623e-005,-0.000134970474646923,0
0.795000000000001,0.510757774590289,0.0175786614581744,0.159973144568497,0.965148926005966,-0.00970488601336711,0.0283913821555143,8.87252367002345e-005,0,0,-4.47645664198185e-005,5.42732075065131e-005,0
0.796000000000001,0.513687551499985,0.0200201422162542,0.160339355506082,0.964965820537174,-0.00317392498550371,0.0284357904719613,0.000186529587649283,0,0,0.000380926633091985,0.000209662742048457,0
0.797000000000001,0.513199255348369,0.0249031037324137,0.160278320349818,0.965148926005966,0.00225836970122379,0.0284856564830524,0.000258247559556033,0,0,4.05169542519692e-005,-5.42467544224971e-005,0
0.798000000000001,0.516129032258065,0.0205084383678701,0.160217285193553,0.965026855693438,0.00128177739799188,0.028540625502057,0.000269309276905007,0,0,-0.000297167037005257,-5.58223293754847e-005,0
0.799000000000001,0.514664143803217,0.0156254768517106,0.160217285193553,0.965270996318495,0.00170903653065584,0.02859952687552,0.00023297169267063,0,0,-0.000158457273001802,2.11806515639573e-006,0
0.800000000000001,0.514175847651601,0.0151371807000946,0.160522460974875,0.965087890849702,0.00878933072908719,0.0286592476563076,0.000207313540056667,0,0,-9.33690780362357e-005,0.000123491441775748,0
0.801000000000001,0.51905880916776,0.0097659230323191,0.160034179724761,0.965148926005966,0.0131229590746788,0.0287166731602451,0.000179594166901107,0,0,-0.000439833514387081,0.000160218998637849,0
0.802000000000001,0.517593920712912,0.0253913998840297,0.160217285193553,0.965026855693438,-0.0116580706198309,0.028769681511675,9.27434677924914e-005,0,0,-0.000253624292030538,-2.04614069403448e-005,0
0.803000000000001,0.514664143803217,0.0156254768517106,0.160034179724761,0.964965820537174,0.0145268105105747,0.028812414742735,-2.59087062345398e-005,0,0,8.42628294804409e-005,-9.31808295797299e-005,0
0.804000000000001,0.515152439954833,0.0185552537614063,0.160217285193553,0.965087890849702,-0.00726340525528733,0.0288470472550903,7.59497050739714e-005,0,0,6.91764709325079e-005,-0.000295659022626414,0
0.805000000000001,0.516129032258065,0.0141605883968627,0.160217285193553,0.964904785380909,-0.0087282937101352,0.0288899376451752,-5.37169294049535e-005,0,0,4.84852638519419e-005,-0.000228058041634692,0
0.806000000000001,0.512710959196753,0.0170903653065584,0.160156250037289,0.965026855693438,-0.000915555284279916,0.0289236283998722,1.2105491695322e-005,0,0,-0.000134191534809757,-0.000261754121592536,0
0.807000000000001,0.514175847651601,0.0166020691549425,0.160400390662346,0.965087890849702,0.0043946653645436,0.0289600737336704,8.63865789044174e-005,0,0,-5.11007122047345e-005,-0.000303026672355423,0
0.808000000000001,0.511734366893521,0.0268562883388775,0.160034179724761,0.965026855693438,0.000244148075807978,0.0289993429327814,8.88302568214589e-005,0,0,-0.000257062714787773,-9.72391207326576e-005,0
0.809000000000001,0.515640736106449,0.0180669576097903,0.160156250037289,0.964965820537174,0.00384533219397565,0.0290379101452391,4.54656547758563e-005,0,0,-0.000121812241179868,-0.000103859027922654,0
0.810000000000001,0.513199255348369,0.0195318460646382,0.160156250037289,0.964904785380909,0.010925626392407,0.0290766665920765,4.0509894968463e-005,0,0,0.000138235118935338,-0.000241308057138258,0
0.811000000000001,0.511734366893521,0.0200201422162542,0.160217285193553,0.964965820537174,0.011352885525071,0.029118393022798,4.90425484926715e-006,0,0,-2.9897076506122e-005,-0.00038631922016212,0
0.812000000000001,0.518570513016144,0.0146488845484787,0.160217285193553,0.964965820537174,0.0159306619464705,0.0291580685805969,-8.93372024558397e-005,0,0,-0.000132798601094012,-0.000401441081597433,0
0.813000000000001,0.518570513016144,0.0195318460646382,0.160156250037289,0.965087890849702,0.00573747978148747,0.029192751073265,-0.000181330664179012,0,0,-0.000236690420117787,-0.000356833484815369,0
0.814000000000001,0.515640736106449,0.0126956999420148,0.159973144568497,0.965087890849702,-0.00158696249275185,0.0292206080503127,-0.000306901539982322,0,0,-0.000193415798801692,-0.000240172862487363,0
0.815000000000001,0.513199255348369,0.0205084383678701,0.160156250037289,0.965087890849702,0.000671407208471938,0.0292393089409503,-0.000336946456482182,0,0,7.1910460627201e-005,-0.000104132491799677,0
0.816000000000001,0.511246070741905,0.021973326822718,0.160400390662346,0.964965820537174,0.0054322946867275,0.0292543336856497,-0.000302131541201857,0,0,6.4464708983751e-005,-0.000100854049025885,0
0.817000000000001,0.517593920712912,0.0224616229743339,0.16046142581861,0.965087890849702,0.00695822016052736,0.0292703837673963,-0.000288920494880142,0,0,-0.000415497757817761,-0.000240410023083525,0
0.818000000000001,0.512222663045137,0.0258796960356456,0.160522460974875,0.965087890849702,-0.00933866389965514,0.029289756311282,-0.00031747135818056,0,0,-0.000743424594938884,-0.000248667269215443,0
0.819000000000001,0.512222663045137,0.0166020691549425,0.160156250037289,0.964843750224645,0.0098269600512711,0.02931028776593,-0.000357347495749911,0,0,-0.000830892934101356,-0.000102006786483364,0
0.820000000000001,0.515152439954833,0.0200201422162542,0.160400390662346,0.964965820537174,0.010498367259743,0.0293325376596574,-0.000254605321549962,0,0,-0.000454858481671723,-0.000364978732864086,0
0.821000000000001,0.510269478438673,0.0224616229743339,0.160339355506082,0.965087890849702,0.00299081392864772,0.02936312863624,-0.000323095503179862,0,0,-0.000329631349005959,-0.000509495376082032,0
0.822000000000001,0.513199255348369,0.021973326822718,0.160217285193553,0.965026855693438,0.00787377544480728,0.029388709662931,-0.000393054758064166,0,0,-0.000531906351669908,-0.000238343578327354,0
0.823000000000001,0.509292886135441,0.0253913998840297,0.16046142581861,0.964843750224645,-0.00610370189519944,0.029411528538836,-0.000394071987973429,0,0,-0.000321371711923278,-0.000177826450178858,0
0.824000000000001,0.51905880916776,0.021973326822718,0.160339355506082,0.965087890849702,0.00616473891415143,0.0294366463427758,-0.000437006672776566,0,0,-0.000440242502410293,-0.000437575977106058,0
0.825000000000001,0.513687551499985,0.0249031037324137,0.160522460974875,0.965026855693438,0.0140995513779107,0.0294623723008881,-0.000357072022053682,0,0,-0.000549271059648672,-0.000348565616641002,0
0.826000000000001,0.513687551499985,0.0239265114291818,0.160156250037289,0.964904785380909,0.00451673940244758,0.0294961995775236,-0.000387638004012225,0,0,-0.000615845760973768,-0.000163098427041931,0
0.827000000000001,0.518570513016144,0.0136722922452467,0.160339355506082,0.964904785380909,0.0153202917569506,0.0295305821032794,-0.000484503193851224,0,0,-0.000411413791726423,-0.000382649659674876,0
