"time{s}","accelerometer_y","accelerometer_z","encoder_L","encoder_R","gyro_x","mux_out[1]","mux_out[2]","mux_out[3]","mux_out[4]","mux_out[5]","mux_out[6]","fallen_down"
0.669,0.514664143803217,0.0288094729453414,0.100280761742098,0.788085937683491,-0.0157475508896146,0.0373838723919966,0.00305389970872848,0,0,0.00185174185299689,0.0017353584505653,0
0.67,0.511246070741905,0.0341807306131169,0.100280761742098,0.788330078308547,-0.000366222113711966,0.0376675561643984,0.00299320931010263,0,0,0.00141517401245719,0.00157014893696239,0
0.671,0.512710959196753,0.0263679921872616,0.0999145508045132,0.788269043152283,-0.0209967345194861,0.0379460731685271,0.00294053033861952,0,0,0.00137924260946639,0.00152477676285704,0
0.672,0.515640736106449,0.032227546006653,0.10015869142957,0.788146972839755,-0.0144657734916227,0.0382232691487965,0.00275891997113028,0,0,0.00168380144346411,0.00162226858192177,0
0.673,0.515640736106449,0.0273445844904935,0.100036621117042,0.788024902527226,-0.00793481246375927,0.0384898259455015,0.0027660918050039,0,0,0.00172671846569198,0.00133859847104729,0
0.674,0.513687551499985,0.032715842158269,0.10015869142957,0.788330078308547,-0.0160527359843745,0.0387567921991094,0.00271666293778099,0,0,0.00148309321397931,0.000986482496704738,0
0.675,0.515152439954833,0.0268562883388775,0.100036621117042,0.788330078308547,-0.0236213263344218,0.0390207792513938,0.00261418969639661,0,0,0.00138886121208104,0.00112070441148434,0
0.676,0.513687551499985,0.0297860652485733,0.100097656273306,0.788330078308547,-0.0206305124057741,0.0392785509842753,0.00258794906517658,0,0,0.00132390312792916,0.00140241751370358,0
0.677,0.515640736106449,0.0253913998840297,0.100219726585834,0.78851318377734,-0.00799584948271126,0.0395346940281366,0.0026284283039097,0,0,0.00133570686187737,0.00134337118482968,0
0.678,0.512710959196753,0.0302743614001892,0.0999145508045132,0.788391113464812,-0.0173345133823664,0.0397922382764614,0.00264065056834516,0,0,0.00105894010937444,0.00146254025115464,0
0.679,0.513687551499985,0.0258796960356456,0.0999755859607774,0.788330078308547,-0.0172124393444624,0.0400487840732227,0.00254347809210549,0,0,0.00119047893882109,0.00143735830644129,0
0.68,0.516129032258065,0.0312509537034211,0.099853515648249,0.788391113464812,-0.0152592547379986,0.0402976014407638,0.00253270051146695,0,0,0.00139389806067712,0.00116326818361709,0
0.681,0.520035401470992,0.0292977690969573,0.0999755859607774,0.788208007996019,0.00170903653065584,0.040544451209943,0.00252155057195821,0,0,0.00138354065772785,0.00110089318533109,0
0.682,0.511734366893521,0.0361339152195807,0.0996704101794563,0.788391113464812,-0.032166508987701,0.0407895990117275,0.00249430865607681,0,0,0.00127933657135447,0.000881773195321317,0
0.683000000000001,0.512222663045137,0.032715842158269,0.0999755859607774,0.78851318377734,-0.0227668080690939,0.0410331667054073,0.00232289314181556,0,0,0.00140514519173971,0.000833599246431681,0
0.684000000000001,0.513687551499985,0.0302743614001892,0.099853515648249,0.788574218933604,-0.0233161412396619,0.0412678636595859,0.00245349373171573,0,0,0.00136173532543584,0.00115534244337678,0
0.685000000000001,0.509781182287057,0.0346690267647328,0.0997924804919847,0.788635254089868,-0.0123905148472549,0.0415141999446686,0.00249507430857212,0,0,0.00110924037645423,0.00131182326200433,0
0.686000000000001,0.515640736106449,0.0283211767937254,0.100036621117042,0.78851318377734,-0.011169774468215,0.0417638533751744,0.00253876520478291,0,0,0.00125279932432826,0.00137697413525109,0
0.687000000000001,0.517105624561296,0.0288094729453414,0.099853515648249,0.788574218933604,-0.0173345133823664,0.0420176086580779,0.00248577760713741,0,0,0.00097292564965835,0.00122167021066835,0
0.688000000000001,0.508316293832209,0.0366222113711966,0.0999145508045132,0.788635254089868,-0.0286873989074374,0.0422683255073915,0.00242562397610829,0,0,0.000849678609590288,0.00108327013552716,0
0.689000000000001,0.510269478438673,0.04345835749382,0.0997924804919847,0.788635254089868,-0.0281991027558214,0.0425130367214437,0.00242225138796999,0,0,0.000958381227424791,0.00117774281172617,0
0.690000000000001,0.513199255348369,0.0346690267647328,0.0996093750231921,0.788696289246133,-0.0247199926755577,0.0427587837350673,0.00251669738949579,0,0,0.0010104999393268,0.00121649844237278,0
0.691000000000001,0.513199255348369,0.0283211767937254,0.0996704101794563,0.788574218933604,-0.0144657734916227,0.0430173709544591,0.0026010110367971,0,0,0.00131748794713007,0.00124666894553027,0
0.692000000000001,0.519547105319376,0.0346690267647328,0.0999145508045132,0.788635254089868,-0.00677510910367138,0.0432866680641532,0.0026501153757487,0,0,0.00138675221107548,0.00112204600813313,0
0.693000000000001,0.509781182287057,0.0366222113711966,0.0999145508045132,0.788818359558661,-0.010742515335551,0.0435580613128159,0.00260797352248854,0,0,0.000962324540997509,0.000978012201645147,0
0.694000000000001,0.513199255348369,0.04345835749382,0.0997314453357205,0.788757324402397,-0.0167851802117985,0.0438255333035343,0.00250235886325944,0,0,0.000624299520909354,0.00116756847241131,0
0.695000000000001,0.512222663045137,0.0317392498550371,0.0996704101794563,0.788757324402397,-0.0157475508896146,0.0440883082415423,0.00243749003136518,0,0,0.000784432901707483,0.00122853984577124,0
0.696000000000001,0.513199255348369,0.0380870998260445,0.0997314453357205,0.788757324402397,-0.0177007354960784,0.0443522862195105,0.00242864897293635,0,0,0.00100837959364024,0.00109509681065703,0
0.697000000000001,0.512710959196753,0.0405285805841243,0.0996093750231921,0.788818359558661,-0.0204474013489181,0.0446186490555026,0.00241144237360824,0,0,0.000955740788829036,0.00103717536157186,0
0.698000000000001,0.512222663045137,0.0375988036744285,0.0997924804919847,0.788696289246133,-0.0170293282876064,0.0448845143733051,0.0024121094445346,0,0,0.000979364301128629,0.00105583803801668,0
0.699000000000001,0.513687551499985,0.032227546006653,0.099853515648249,0.788879394714925,-0.00903347880489517,0.045154224268984,0.00243634912240895,0,0,0.000868309421135218,0.000940124526644423,0
0.700000000000001,0.515152439954833,0.0356456190679647,0.0997314453357205,0.788818359558661,-0.011169774468215,0.0454287509069129,0.00242967881787073,0,0,0.000548620642598653,0.000946396506897426,0
0.701000000000001,0.510269478438673,0.0380870998260445,0.0997924804919847,0.788879394714925,-0.0208746604815821,0.0457025937701615,0.00235468312864266,0,0,0.000569976461334014,0.00100958771237496,0
0.702000000000001,0.514175847651601,0.0405285805841243,0.0994873047106637,0.789001465027454,-0.0122074037903989,0.0459704975630686,0.00230276640662484,0,0,0.000607848252705075,0.000954612121899263,0
0.703000000000001,0.513687551499985,0.0395519882808924,0.0995483398669279,0.788818359558661,-0.00524918362987152,0.0462362638371637,0.00233754968000829,0,0,0.000843128526706153,0.00110270109605137,0
0.704000000000001,0.515152439954833,0.0332041383098849,0.0996093750231921,0.788696289246133,-0.02172917874691,0.0465071237104587,0.00229563052530117,0,0,0.00104060794132747,0.000954032258980843,0
0.705000000000001,0.515152439954833,0.0346690267647328,0.0995483398669279,0.78894042987119,-0.00628681295205542,0.0467783439384565,0.00219652177746245,0,0,0.000844021356861132,0.000564518339530519,0
0.706000000000001,0.514664143803217,0.0332041383098849,0.0993652343981353,0.78894042987119,-0.00482192449720756,0.0470431770491436,0.00224532733740856,0,0,0.00079310640602474,0.000662764407289545,0
0.707000000000001,0.516129032258065,0.0332041383098849,0.0994873047106637,0.789062500183718,0.00592059083834346,0.0473090671514266,0.00215830027306404,0,0,0.000984219771311749,0.000861817953742012,0
0.716000000000001,0.513199255348369,0.0395519882808924,0.0994262695543995,0.789184570496246,-0.00769066438795129,0.0494593417913485,0.00157412921212612,0,0,0.000183225313873962,0.000791709428743129,0
0.725000000000001,0.511246070741905,0.0400402844325083,0.0993041992418711,0.789123535339982,-0.00244148075807978,0.0515208038474643,0.0014283451258515,0,0,7.28726571512572e-005,0.000328374700233298,0
0.734000000000001,0.513687551499985,0.0395519882808924,0.0993041992418711,0.789306640808775,-0.00909451582384716,0.0534185069633869,0.00129186649054475,0,0,0.000285985948607357,8.65864209999617e-005,0
0.744000000000001,0.515152439954833,0.0400402844325083,0.0991821289293426,0.789306640808775,0.00585955381939146,0.0553445172611543,0.00106739167476461,0,0,-5.30622001094005e-005,3.71553025691244e-005,0
0.754000000000001,0.513687551499985,0.0366222113711966,0.0993652343981353,0.789306640808775,-0.00561540574358348,0.0568905656594752,0.000731159475135677,0,0,-0.000587251267118896,-0.000308826320475056,0
0.764000000000001,0.512222663045137,0.0371105075228126,0.0991821289293426,0.789306640808775,0.00427259132663961,0.058130511108946,0.000434973790063929,0,0,-0.00018579512083673,-0.000342828775442337,0
0.774000000000001,0.517593920712912,0.0317392498550371,0.0993652343981353,0.789245605652511,0.00988799707022309,0.0590110000638514,1.70108034303756e-006,0,0,-0.000114514720636685,-0.000527946563565536,0
0.784000000000001,0.51661732840968,0.032715842158269,0.0993041992418711,0.789367675965039,-0.00189214758751183,0.0594104735663091,-0.000388508016188319,0,0,-0.000457134132283646,-0.000730577305078674,0
0.794000000000001,0.509781182287057,0.032227546006653,0.0988159179917574,0.789123535339982,0.0075685903500473,0.0594983706975707,-0.000457543483229619,0,0,-0.00019496351000476,-0.000582549149675164,0
0.804000000000001,0.512710959196753,0.0336924344615009,0.0989379883042858,0.789245605652511,0.00634784997100742,0.0593158318068653,-0.000483385966851787,0,0,-0.000669152507737497,-0.000842081797605599,0
0.814000000000001,0.513687551499985,0.0283211767937254,0.0988159179917574,0.789184570496246,0.0164189580980865,0.0591369721135715,-0.000456548018955398,0,0,-0.000309915281137957,-0.00064562472754372,0
0.824000000000001,0.512710959196753,0.0312509537034211,0.0985717773667005,0.789184570496246,0.0064699240089114,0.0589169934914944,-0.000603894655606154,0,0,-0.000206359383017762,-0.00061589891953636,0
0.834000000000001,0.515152439954833,0.032715842158269,0.0988159179917574,0.789001465027454,0.00524918362987152,0.0584959588668336,-0.000807847212002413,0,0,-0.000789808327085138,-0.000820975150212339,0
0.843000000000001,0.515152439954833,0.0317392498550371,0.0987548828354932,0.789123535339982,-0.00531022064882351,0.0579851547620934,-0.000898099599383947,0,0,-0.000298161449959675,-0.000923289230036353,0
0.852000000000001,0.51661732840968,0.0263679921872616,0.0988769531480216,0.788818359558661,-0.00146488845484787,0.0574177425144622,-0.00066395883952466,0,0,-0.00060995331087978,-0.000570809656500221,0
0.861000000000001,0.516129032258065,0.021485030671102,0.0988769531480216,0.788879394714925,0.00286873989074374,0.0568314718566711,-0.000703143405745183,0,0,-0.000548565244882674,-0.000918715612566561,0
0.869000000000001,0.513199255348369,0.0234382152775658,0.09899902346055,0.78894042987119,-0.00115970336008789,0.0562256808370309,-0.000613588552558378,0,0,-0.00043879411973241,-0.000751020387581248,0
0.877000000000001,0.517105624561296,0.0209967345194861,0.0988769531480216,0.788818359558661,-0.00909451582384716,0.0555511251758475,-0.000601322853672681,0,0,-0.000456639101620705,-0.00040383102767218,0
0.885000000000001,0.519547105319376,0.0175786614581744,0.0985717773667005,0.788818359558661,0.00616473891415143,0.0549178612029528,-0.000473806781353951,0,0,-0.000375410284363625,-0.000407771621699916,0
0.893000000000001,0.513199255348369,0.021485030671102,0.0988159179917574,0.788818359558661,-0.0064699240089114,0.0541607938007395,-0.000418291317771781,0,0,-0.000235334104128828,-0.000670700529295375,0
0.901000000000001,0.514664143803217,0.0239265114291818,0.0988159179917574,0.788818359558661,-0.00250251777703177,0.0533360711020188,-0.000449271214416638,0,0,-0.000675611375760412,-0.000310217952905109,0
0.909000000000001,0.51905880916776,0.0190435499130222,0.0985717773667005,0.788818359558661,0.00506607257301553,0.0525734346720314,-0.00013710209780265,0,0,-5.57958375888602e-005,-0.000217109715122028,0
0.917000000000001,0.513199255348369,0.0249031037324137,0.0984497070541721,0.789001465027454,-0.00506607257301553,0.0517824422740742,-0.000285602327229785,0,0,-6.33234936342691e-005,-0.000184632918733935,0
0.925000000000001,0.514175847651601,0.0234382152775658,0.098693847679229,0.789062500183718,0.00555436872463149,0.0510773500433283,-0.000245686074738558,0,0,-0.000381471720956118,-0.000188466098734636,0
0.933000000000001,0.51661732840968,0.0151371807000946,0.098693847679229,0.789001465027454,-0.010559404278695,0.0503740944099,-0.00020563241491011,0,0,-4.97187029194198e-005,-0.000299544153533491,0
0.941000000000001,0.515640736106449,0.0253913998840297,0.0987548828354932,0.78894042987119,-0.00366222113711966,0.0497634965594803,7.22724217060962e-005,0,0,0.000174003516964778,5.32565080155601e-005,0
0.948000000000001,0.512222663045137,0.0258796960356456,0.0987548828354932,0.789062500183718,-0.00964384899441511,0.0494225338251779,0.000322733645096458,0,0,-0.000115054657532822,0.000198023331979169,0
0.955000000000001,0.512222663045137,0.021973326822718,0.0984497070541721,0.789245605652511,-0.00689718314157537,0.0492185831814237,0.000317059534236148,0,0,-0.000136102719918812,0.000158590250106242,0
0.962000000000001,0.511246070741905,0.032715842158269,0.0983886718979079,0.78894042987119,0.00250251777703177,0.0491834313775795,0.000464601515644743,0,0,8.14328151215451e-005,5.58194070536463e-006,0
0.969000000000001,0.514664143803217,0.0351573229163488,0.0986328125229647,0.789001465027454,-0.00366222113711966,0.0492647753021729,0.000187568217276845,0,0,6.13326580367793e-006,0.000220662891278394,0
0.976000000000001,0.508804589983825,0.0341807306131169,0.098693847679229,0.789184570496246,-0.00891140476699118,0.049550760924832,0.000334314268902541,0,0,-0.000609856775963583,8.51826523499181e-005,0
0.982000000000001,0.517593920712912,0.0458998382518998,0.0987548828354932,0.788879394714925,0.00164799951170385,0.050012687866076,0.00029478407705385,0,0,-0.000416974660892721,-1.27368809058819e-005,0
0.988000000000001,0.519547105319376,0.0356456190679647,0.0989379883042858,0.789001465027454,-0.000671407208471938,0.0506458519093706,-1.11529977805308e-005,0,0,-0.000351341200548898,-0.000237700438272871,0
0.994000000000001,0.519547105319376,0.04345835749382,0.0991821289293426,0.788696289246133,0.00811792352061525,0.0512567139168475,-0.000390667289210107,0,0,-0.000772041549895688,-0.00075219854228011,0
1,0.517593920712912,0.0410168767357402,0.0990600586168142,0.788696289246133,-0.00897244178594317,0.0518530239873208,-0.000484066498400221,0,0,-0.00089967643343879,-0.000691053936630177,0
1.006,0.539078951384014,-0.0449232459486679,0.100097656273306,0.787963867370962,0.0231940672017579,0.0525577006534616,0.000433134884804431,0,0,-0.00252452338185798,-0.00116523226352681,0
1.011,0.54689168980987,-0.0234382152775658,0.101074218773533,0.787170410339527,0.0590227973265786,0.0523422846696787,-0.000603144848518928,0,0,-0.00334610681655895,-0.00279703857213238,0
1.016,0.544938505203406,0.0400402844325083,0.103088378930252,0.785461425964129,0.0381481368449965,0.0509298945030266,-0.00236835973395941,0,0,-0.00636263831835364,-0.00512135013937402,0
1.021,0.456556901760918,-0.0253913998840297,0.105102539086971,0.783752441588732,0.0692159794915616,0.0491718174226876,-0.00406300855472586,0,0,-0.00926828525818336,-0.00803071156220158,0
1.026,0.543473616748558,0.0156254768517106,0.107971191431389,0.781372070494427,0.0827661976989044,0.0465416946060152,-0.00561172795693802,0,0,-0.0127230560758299,-0.0113750462472957,0
1.031,0.463881344035157,-0.0161137730033265,0.111267089869656,0.77807617205616,0.114200262459182,0.0431937836885294,-0.00764888930660362,0,0,-0.0167777414923357,-0.0150378928218473,0
1.036,0.524918362987152,-0.0268562883388775,0.115600585964415,0.774841308774157,0.115359965819269,0.0389985152041305,-0.00978927571318858,0,0,-0.0209633795650642,-0.0188686390155667,0
1.04,0.501480147709586,-0.0200201422162542,0.119689941434117,0.771301269710833,0.13098544267098,0.034856648949295,-0.0114416286424402,0,0,-0.0253525536126272,-0.0224312857867981,0
1.044,0.508316293832209,-0.0600604266487625,0.123840332060084,0.767761230647508,0.163884395886105,0.030238120570828,-0.0130281023953997,0,0,-0.028984389721209,-0.0253689342312689,0
1.048,0.499038666951506,-0.0400402844325083,0.128234863311107,0.763793945490335,0.166570024719993,0.0249189846265902,-0.015017565863867,0,0,-0.0326181547636674,-0.0283586205613669,0
1.05199999999999,0.496597186193426,-0.0678731650746178,0.132934570343451,0.760009765801954,0.150944547868282,0.0189000018181192,-0.016667403610224,0,0,-0.0360242495549745,-0.031332656373688,0
1.05599999999999,0.493179113132115,-0.0717795342875454,0.138061523469645,0.755493164238402,0.196111941892758,0.0123364986755715,-0.018164125614296,0,0,-0.0396390306788081,-0.0347103403142895,0
1.05999999999999,0.512710959196753,-0.0722678304391614,0.143249511752103,0.750488281424737,0.185674611651967,0.00506844621703337,-0.0199387346055686,0,0,-0.0432160353361567,-0.0382770368472364,0
1.06299999999999,0.486831263161107,-0.0664082766197699,0.147827148471919,0.746459961111299,0.207892086550493,-0.00077094057521518,-0.0209863112333622,0,0,-0.0456131207777521,-0.0410722344145937,0
1.06599999999999,0.477553636280404,-0.0688497573778497,0.152587890660527,0.741943359547747,0.21301919614246,-0.00686946005410615,-0.0223212844841642,0,0,-0.0485184053836249,-0.0442683416307653,0
1.06899999999999,0.499038666951506,-0.087405011139256,0.156921386755286,0.737854004078045,0.223822748496963,-0.013273372154277,-0.0234854383704907,0,0,-0.0514451912211533,-0.0470049651083384,0
1.07199999999999,0.482436597796564,-0.087405011139256,0.162292480506537,0.733032226733172,0.249580370494705,-0.0198946066415054,-0.0248668364791934,0,0,-0.0539404651247709,-0.0500264482257971,0
1.07499999999999,0.443861201818903,-0.0712912381359294,0.167358398476466,0.727966308763243,0.259285256508072,-0.0267809869955863,-0.0263743488791014,0,0,-0.0569292939318589,-0.0528457522959558,0
1.07799999999999,0.462416455580309,-0.087405011139256,0.172973632852774,0.722900390793313,0.262703329569384,-0.0339160563147303,-0.0279601588024171,0,0,-0.0593596687378783,-0.0552949151487855,0
1.08099999999999,0.45265053254799,-0.0927762688070315,0.178588867229081,0.717102050948213,0.263191625721,-0.0413175156353169,-0.0294143384147916,0,0,-0.0623532876658834,-0.0589486659192288,0
1.08399999999999,0.479018524735252,-0.0961943418683432,0.184265136761653,0.711608886884434,0.292367320780053,-0.0490077731538331,-0.0308300981960072,0,0,-0.0648081176469714,-0.0616901873094919,0
1.08699999999999,0.471205786309397,-0.0893581957457198,0.190795898481923,0.705810547039334,0.312326425977355,-0.0569840636286025,-0.0323832880573691,0,0,-0.0682192534010823,-0.0652331689584692,0
1.08999999999999,0.441419721060823,-0.0800805688650166,0.197204589889665,0.699584961100385,0.319040498062075,-0.0652497748421455,-0.0343349895423157,0,0,-0.0718563236340433,-0.0681952085797136,0
1.09299999999999,0.462904751731925,-0.0849635303811762,0.203674316453672,0.693054199380114,0.338938566240425,-0.0738203957840246,-0.036089512615135,0,0,-0.0749923108419153,-0.0721854964245474,0
1.09599999999999,0.428235724967193,-0.0952177495651112,0.211059570361641,0.686462402503579,0.336924344615009,-0.0825922257104444,-0.0377646186795876,0,0,-0.0780171356194018,-0.0749672978549846,0
1.09899999999999,0.415540025025178,-0.0820337534714805,0.21813964848829,0.679321289220667,0.372997222815638,-0.0915397874195196,-0.0394156458266616,0,0,-0.0815743127586221,-0.0777598271995515,0
1.10199999999999,0.408215582750938,-0.087405011139256,0.225463867239995,0.671936035312697,0.366466261787774,-0.100781905640164,-0.0411952757051976,0,0,-0.0854286614669498,-0.0818344068225596,0
1.10499999999999,0.397473067415387,-0.0888698995941038,0.233459472710607,0.664245605623407,0.397656178472243,-0.110277403650639,-0.0429260882677549,0,0,-0.0883638771431867,-0.0856504270254445,0
1.10799999999999,0.400402844325083,-0.111819818720054,0.241699218806275,0.656433105621588,0.410351878414258,-0.120108120117212,-0.045104682055094,0,0,-0.0925872145151975,-0.0892755761728849,0
1.10999999999999,0.427259132663961,-0.0957060457167272,0.247314453182582,0.650939941557809,0.422559282204657,-0.126900750022232,-0.0463846488298393,0,0,-0.0954988608363023,-0.0923963074764318,0
1.11199999999999,0.40919217505417,-0.0830103457747124,0.253295898496475,0.645751953275351,0.425061799981689,-0.1338525122249,-0.0477126275658371,0,0,-0.0973310050422436,-0.0941405206426528,0
1.11399999999999,0.35254982146672,-0.104495376445814,0.259094238341575,0.640014648586515,0.424939725943785,-0.140906085376128,-0.0490893349639848,0,0,-0.100131207458324,-0.0959825106999363,0
1.11599999999999,0.321298867763298,-0.103030487990967,0.264892578186675,0.634094238428887,0.451246681112094,-0.148058926690253,-0.0503111959576675,0,0,-0.102685758252895,-0.0987008158084332,0
1.11799999999999,0.320322275460067,-0.115237891781365,0.270812988344304,0.628295898583787,0.460219122898038,-0.155405581373039,-0.0517629681697896,0,0,-0.104700098331187,-0.101376029616855,0
1.11999999999999,0.317880794701987,-0.118167668691061,0.277343750064574,0.622192382957365,0.470656453138829,-0.162976563036564,-0.0531835369470335,0,0,-0.107154491276294,-0.103702590927061,0
1.12199999999999,0.337412640766625,-0.120609149449141,0.283935546941109,0.615966797018416,0.484694967497787,-0.170831673472299,-0.0545863438830894,0,0,-0.10996835556114,-0.10642384710422,0
1.12399999999999,0.382335886715293,-0.122074037903989,0.290771484442701,0.609863281391995,0.491775261696219,-0.178909949945487,-0.0560054957257471,0,0,-0.112816270312278,-0.109053934171249,0
1.12599999999999,0.331064790795618,-0.111819818720054,0.296936035225386,0.603149414202932,0.512588885158849,-0.187191797867736,-0.0573840975395333,0,0,-0.115550417833305,-0.111289797412949,0
1.12799999999999,0.360850856044191,-0.128910184026612,0.303894043039506,0.596374511857604,0.513199255348369,-0.195607935273914,-0.058953844208328,0,0,-0.117617286611619,-0.114220133004554,0
1.12999999999999,0.3090914639729,-0.153813287759026,0.310058593822191,0.589721679824805,0.532120731223487,-0.20419201454622,-0.0603844960031335,0,0,-0.120585585876958,-0.117205392714036,0
1.13199999999999,0.281746879482406,-0.120120853297525,0.318054199292803,0.582641601698157,0.558061464278085,-0.213028945670605,-0.0619438541667691,0,0,-0.122544456449736,-0.119597418625332,0
1.13399999999999,0.280281991027558,-0.135746330149236,0.325561523513301,0.575500488415244,0.553544724875637,-0.222191286101743,-0.0636972567018235,0,0,-0.126599068964811,-0.122937379467246,0
1.13599999999999,0.303231910153508,-0.110843226416822,0.332824707108742,0.567871093882218,0.567033906064028,-0.231609528668585,-0.0651703772485788,0,0,-0.129249788418031,-0.125582314616008,0
1.13799999999999,0.307626575518052,-0.108890041810358,0.340820312579353,0.560424804817984,0.582354197820978,-0.241229941813978,-0.0666608235717445,0,0,-0.131975064052048,-0.129245199837886,0
1.13899999999999,0.287606433301798,-0.109378337961974,0.344604492267734,0.556640625129603,0.587176122318186,-0.246068618550484,-0.0674225287110438,0,0,-0.133822781554965,-0.130664611289885,0
1.13999999999999,0.275887325663015,-0.132328257087924,0.348571777424908,0.552795410284958,0.605548265022736,-0.250918803433356,-0.0681930493535475,0,0,-0.13556732525026,-0.132205141863457,0
1.14099999999999,0.28370006408887,-0.149418622394482,0.352783203207139,0.549011230596577,0.610980559709464,-0.255793788676565,-0.0689566133584701,0,0,-0.136968307757714,-0.133678807808264,0
1.14199999999999,0.270027771843623,-0.177739799188208,0.356201171957935,0.544677734501818,0.626361888485366,-0.260713647590372,-0.069830156124144,0,0,-0.138774142221126,-0.135090428141766,0
1.14299999999998,0.272957548753319,-0.193365276039918,0.361083984459071,0.541015625125965,0.589983825189978,-0.26570728122231,-0.0706955168524973,0,0,-0.139898435981074,-0.136967663554572,0
1.14399999999998,0.263679921872616,-0.180669576097903,0.364196777428546,0.537231445437584,0.631855220191046,-0.27079717099102,-0.0716387466761148,0,0,-0.141641244459396,-0.138558673396009,0
1.14499999999998,0.258796960356456,-0.170903653065584,0.369262695398476,0.533142089967882,0.620014038514359,-0.276009000636241,-0.0722099504205031,0,0,-0.142947764194051,-0.139458373295305,0
1.14599999999998,0.252449110385449,-0.136234626300851,0.373596191493235,0.529113769654444,0.637470625934629,-0.281316112839954,-0.0731052546171896,0,0,-0.144409881725414,-0.140802722141104,0
1.14699999999998,0.221198156682028,-0.115237891781365,0.378112793056786,0.524902343872213,0.647419660023804,-0.286726322953832,-0.0738425003715002,0,0,-0.147104437569774,-0.142329609633984,0
1.14799999999998,0.195806756797998,-0.102542191839351,0.382507324307809,0.520080566527341,0.636494033631397,-0.292203117926149,-0.0746835070042675,0,0,-0.149073063178063,-0.143928437286588,0
1.14899999999998,0.21973326822718,-0.0791039765617847,0.387145996183889,0.516479492307752,0.658284249397259,-0.297728972515722,-0.0755572086718704,0,0,-0.150977910406516,-0.146278819360858,0
1.14999999999998,0.21485030671102,-0.0615253151036103,0.391540527434913,0.51239013683805,0.666585283974731,-0.303301331066532,-0.076282080730781,0,0,-0.152906739977319,-0.14783323723187,0
1.15099999999998,0.180669576097903,-0.0795922727134007,0.395812988373407,0.508056640743291,0.662862025818659,-0.30888232284979,-0.0771487495956436,0,0,-0.154754722012593,-0.148536810571247,0
1.15199999999998,0.166508987701041,-0.116214484084597,0.400268554780695,0.503601074336004,0.683675649281289,-0.314441021298796,-0.0780323323775952,0,0,-0.156091912616615,-0.149988515775731,0
1.15299999999998,0.144535660878323,-0.109378337961974,0.405029296969303,0.499145507928716,0.693380535294656,-0.319994964599367,-0.0788283872218972,0,0,-0.157430661839689,-0.151765139187835,0
1.15399999999998,0.146488845484787,-0.106936857203894,0.410034179782969,0.494445800896372,0.669515060884426,-0.325605281937246,-0.0797533700519713,0,0,-0.159253362965574,-0.153602637343943,0
1.15499999999998,0.159184545426801,-0.101077303384503,0.41497802744037,0.489746093864028,0.689352092043825,-0.331323088144512,-0.0807036724683239,0,0,-0.161529410222193,-0.155562244629069,0
1.15599999999998,0.133793145542772,-0.11230811487167,0.420104980566563,0.485412597769269,0.688253425702689,-0.337148230618468,-0.081389081680258,0,0,-0.163850158130624,-0.157651896592961,0
1.15699999999998,0.143559068575091,-0.145023957029939,0.425048828223964,0.480712890736925,0.701132236701559,-0.343041847692582,-0.0822019746742136,0,0,-0.166181029788178,-0.159237213269001,0
1.15799999999998,0.120120853297525,-0.162114322336497,0.430419921975215,0.475524902454467,0.707724234748375,-0.349021087809278,-0.0829543462869097,0,0,-0.168378724759671,-0.160734771019023,0
1.15899999999998,0.075685903500473,-0.15332499160741,0.435546875101409,0.470825195422123,0.711325418866543,-0.355121337460821,-0.0837701708586001,0,0,-0.170727095059413,-0.163086326286494,0
1.15999999999998,0.122074037903989,-0.132328257087924,0.441345214946509,0.465881347764721,0.71187475203711,-0.361385121597365,-0.0845914105092707,0,0,-0.173136863410658,-0.165300884226185,0
1.16099999999998,0.226569414349803,-0.0698263496810816,0.446228027447646,0.46093750010732,0.718955046235542,-0.367865661643601,-0.0853920114107575,0,0,-0.175859462806837,-0.167113426739691,0
1.16199999999998,0.224616229743339,-0.0751976073488571,0.451782226667689,0.455688476668598,0.725058748130741,-0.374526346602682,-0.086147031978083,0,0,-0.178154329762419,-0.169082212661295,0
1.16299999999998,0.133304849391156,-0.133793145542772,0.457031250106411,0.449401855573385,0.733787041840877,-0.381192442147512,-0.0869154861895906,0,0,-0.180055830180157,-0.171272100339435,0
1.16399999999998,0.139164403210547,-0.128421887874996,0.463195800889096,0.443603515728284,0.725974303415021,-0.387765918886203,-0.0876881337106558,0,0,-0.182251001184592,-0.174795164518306,0
1.16499999999998,0.209967345194861,-0.0913113803521836,0.469238281359253,0.438293457133298,0.73879207739494,-0.394349968576217,-0.0884872760538859,0,0,-0.184965282965809,-0.178690379684247,0
1.16599999999998,0.194830164494766,-0.170903653065584,0.474975586048089,0.432800293069519,0.744102298043763,-0.40102912629085,-0.0891690366118882,0,0,-0.18837143158122,-0.181289575065103,0
1.16699999999998,0.30420850245674,-0.199713126010926,0.480590820424396,0.428588867287289,0.764671773430586,-0.407715772466003,-0.0899181619851819,0,0,-0.191125635036629,-0.183418117546371,0
1.16799999999998,0.475112155522324,-0.186040833765679,0.486694336050817,0.421691894629433,0.775963621936705,-0.414408807937713,-0.0906658731622393,0,0,-0.193279113055753,-0.18425731033167,0
1.16899999999998,0.367687002166814,-0.245124668111209,0.49310302745856,0.417724609472259,0.813135166478469,-0.421141655352104,-0.0915434507787994,0,0,-0.195736112861902,-0.186603229629706,0
1.16999999999998,0.0405285805841243,-0.346690267647328,0.499267578241245,0.412475586033537,0.82753990295114,-0.427851921890281,-0.0924629704840818,0,0,-0.198965255693504,-0.188604917737432,0
1.17099999999998,-0.00878933072908719,-0.372569963682974,0.505004882930081,0.407226562594815,0.806176946317942,-0.434546081528775,-0.0936442982364008,0,0,-0.202130969646828,-0.188768071788118,0
1.17199999999998,-0.0444349497970519,-0.184575945310831,0.511169433712766,0.401855468843564,0.797936948759423,-0.441455676636808,-0.0948752460164921,0,0,-0.204356167419885,-0.190287767581109,0
1.17299999999998,0.0776390881069369,-0.0849635303811762,0.517517089964244,0.396484375092314,0.790551469466231,-0.448769090103978,-0.0958451825756891,0,0,-0.20639107548714,-0.191792285715518,0
1.17399999999998,0.193853572191534,-0.164555803094577,0.52325439465308,0.391601562591177,0.801599169896542,-0.45651340994457,-0.0966833326627583,0,0,-0.208929247797278,-0.193303841463749,0
1.17499999999998,0.0405285805841243,-0.217780083620716,0.529663086060822,0.386108398527398,0.816248054445021,-0.464501151003487,-0.0974053234055869,0,0,-0.210846001123216,-0.194190450593808,0
1.17599999999998,-0.13281655323954,-0.157719656971954,0.535949707156036,0.380371093838562,0.816736350596637,-0.472491327241875,-0.0981769329802613,0,0,-0.212740777753251,-0.195183904528756,0
1.17699999999998,-0.0493179113132115,0.126468703268532,0.542114257938721,0.374816894618519,0.814722128971221,-0.480596148423226,-0.0990260050035132,0,0,-0.215127448294361,-0.197054494796507,0
1.17799999999998,0.00878933072908719,0.032227546006653,0.548217773565142,0.369140625085947,0.816858424634541,-0.489120871484668,-0.0998259263950861,0,0,-0.217092122571711,-0.198864863002843,0
1.17899999999998,0.0732444227423933,-0.021485030671102,0.556274414192018,0.361694336021714,0.789269692068239,-0.497378417178552,-0.100558269928464,0,0,-0.218729121999235,-0.200489090623373,0
1.17999999999998,0.288094729453414,0.0639667958616901,0.562500000130967,0.355468750082764,0.813379314554277,-0.504679277723183,-0.101262965809639,0,0,-0.222266423101379,-0.204014397952176,0
1.18099999999998,0.307626575518052,0.0678731650746178,0.569030761851238,0.348999023518758,0.843226416821802,-0.511525875659731,-0.10168618960601,0,0,-0.22570554885305,-0.207904730401423,0
1.18199999999998,0.00585955381939146,-0.0361339152195807,0.575195312633923,0.343261718829922,0.856227301858577,-0.518145352592452,-0.102290104478078,0,0,-0.22735483880785,-0.210572344490695,0
1.18299999999998,0.043946653645436,-0.180669576097903,0.581787109510458,0.336975097734708,0.858851893673513,-0.524465009259465,-0.103112685379691,0,0,-0.228891841751734,-0.212603167408938,0
1.18399999999998,0.19922482985931,-0.164555803094577,0.588500976699521,0.33062744148323,0.871486556596576,-0.530839721863824,-0.103995357394805,0,0,-0.230414394435486,-0.214325189037924,0
1.18499999999998,0.334971160008545,-0.194830164494766,0.595275879044848,0.324218750075488,0.883205664235359,-0.5375751756564,-0.104845134477573,0,0,-0.232451283102928,-0.216615462509323,0
1.18599999999998,0.180181279946287,-0.238288521988586,0.601440429827534,0.317993164136539,0.911465804010132,-0.544503762493626,-0.105750145284684,0,0,-0.23458832432603,-0.21892438570765,0
1.18699999999998,0.0957060457167272,-0.223151341288491,0.607238769672634,0.311645507885061,0.916959135715812,-0.55145791484937,-0.106699047872137,0,0,-0.236049866188881,-0.221009808663512,0
1.18799999999998,0.0117191076387829,-0.123538926358837,0.61370849623664,0.305480957102375,0.900906399731437,-0.558485391339868,-0.107831296326656,0,0,-0.236404949761389,-0.222941774491936,0
1.18899999999998,-0.160649433881649,-0.11230811487167,0.620361328269439,0.298889160225841,0.923429059724723,-0.565719541872841,-0.108939632553141,0,0,-0.237041728409822,-0.224662972080384,0
1.18999999999998,-0.13037507248146,-0.195806756797998,0.62689208998971,0.29235839850557,0.880703146458327,-0.573255108733716,-0.109840316209003,0,0,-0.238563336675289,-0.226542267401454,0
1.19099999999998,0.146977141636402,-0.319833979308451,0.633605957178773,0.285827636785299,0.906582842493973,-0.581328405502119,-0.110878047307789,0,0,-0.24001703345918,-0.2286621972363,0
1.19199999999998,0.179692983794671,-0.477553636280404,0.640258789211572,0.2791748047525,0.91750846888638,-0.590045823578045,-0.111483238856976,0,0,-0.241412245529037,-0.230550922496709,0
1.19299999999998,0.205084383678701,-0.421887874996185,0.64733886733822,0.272399902407173,0.905362102114933,-0.599062526480798,-0.112272906357134,0,0,-0.242899235034131,-0.232501361328224,0
1.19399999999998,0.271004364146855,-0.0361339152195807,0.654235839996076,0.266052246155695,0.931180761131626,-0.608182142596798,-0.113106890898831,0,0,-0.244679410846869,-0.234584619797248,0
1.19499999999998,0.0166020691549425,-0.00732444227423933,0.661315918122725,0.259521484435425,0.953215124973296,-0.617395711684811,-0.113784045990122,0,0,-0.246625177484792,-0.236220401813534,0
1.19599999999998,-0.182622760704367,-0.0932645649586474,0.668457031405637,0.252624511777569,0.939909054841762,-0.62647432195448,-0.114640630662565,0,0,-0.248513343996997,-0.237553198888292,0
1.19699999999998,-0.04345835749382,-0.0375988036744285,0.675476074376022,0.24554443365092,0.937955870235298,-0.635299486309155,-0.115632835461844,0,0,-0.250552670424613,-0.239401323500299,0
1.19799999999998,-0.00097659230323191,-0.00341807306131169,0.682312011877613,0.238525390680536,0.940214239936522,-0.64439637827931,-0.116448298963523,0,0,-0.252367651013492,-0.241697421107264,1
1.19899999999998,-0.144535660878323,-0.00585955381939146,0.68994140641064,0.231262207085095,0.937650685140538,-0.654131556109443,-0.117195732834545,0,0,-0.253731223456799,-0.243975271688817,1
1.19999999999998,-0.103030487990967,0.032227546006653,0.697265625162345,0.224731445364824,0.972624897000031,-0.664294850095237,-0.11791562043372,0,0,-0.255661044507856,-0.24630120499782,1
1.20099999999998,0.0971709341715751,0.0795922727134007,0.704772949382843,0.217407226613119,0.949186681722465,-0.674986455539991,-0.118568235942134,0,0,-0.258039587061121,-0.247994655515072,1
1.20199999999998,0.0766624958037049,0.097659230323191,0.712219238447076,0.210083007861414,0.940763573107089,-0.685242083250679,-0.119480537966667,0,0,-0.260147323709066,-0.249657235959194,1
1.20299999999998,-0.105471968749046,0.123538926358837,0.719543457198782,0.202941894578501,0.945280312509537,-0.694361514492667,-0.120134007791634,0,0,-0.262199941964684,-0.252018554371383,1
1.20499999999998,0.22217474898526,0.0170903653065584,0.734069824389664,0.188842773481468,0.962920010986663,-0.710244619472884,-0.121218898267846,0,0,-0.263806337425923,-0.255772690352731,1
1.20699999999998,0.73879207739494,-0.0620136112552263,0.74792480486164,0.175354003947078,0.88876003295999,-0.723610550371671,-0.122396183722598,0,0,-0.267866921030877,-0.257837401744371,1
1.20899999999998,0.99954222235786,-1.00003051850948,0.762084961114937,0.161804199256423,0.999969481490524,-0.736553269339724,-0.122946514657071,0,0,-0.268203651736947,-0.259118750048286,1
1.21099999999998,-1.00003051850948,-0.95364238410596,0.77691650408714,0.148315429722032,0.999969481490524,-0.748703796237454,-0.12463631094113,0,0,-0.270392197635364,-0.260042281405438,1
1.21299999999998,-1.00003051850948,-1.00003051850948,0.791198730652965,0.134643554718849,0.988616595965453,-0.761495390666295,-0.126120432209843,0,0,-0.272630794650177,-0.261477858492811,1
1.21499999999998,0.99954222235786,0.0512710959196753,0.806030273625169,0.120910644559402,0.999969481490524,-0.776850182004205,-0.127326305691784,0,0,-0.273904608372916,-0.262721951243605,1
1.21699999999998,-0.630390331736198,0.897488326670125,0.819885254097144,0.107971191431389,0.999969481490524,-0.793303965089691,-0.128483011924235,0,0,-0.276039624117403,-0.263805880347341,1
1.21899999999998,-1.00003051850948,0.99954222235786,0.834960937694404,0.0945434570532626,0.999969481490524,-0.808536675421832,-0.129498928657766,0,0,-0.27464152834069,-0.261997320558092,1
1.22099999999998,0.351084933011872,0.872096926786096,0.850341797072986,0.079895019549852,0.999969481490524,-0.819767157488063,-0.130391192207935,0,0,-0.278728633104651,-0.26398693136325,1
1.22299999999998,0.99954222235786,-0.194830164494766,0.865234375201453,0.0666503906405183,0.999969481490524,-0.827100362137961,-0.130596010382876,0,0,-0.278778893839837,-0.264175175312717,1
1.22499999999998,-0.798852504043703,-1.00003051850948,0.880065918173656,0.0526123046997498,0.999969481490524,-0.83213807102008,-0.131354741682574,0,0,-0.282154016629846,-0.266609211218144,1
1.22699999999998,0.273934141056551,-0.748069704275643,0.895324707239709,0.038513183602717,0.999969481490524,-0.839181125177923,-0.132021123346294,0,0,-0.283178603770432,-0.267738538718492,1
1.22899999999998,-0.0961943418683432,-0.750022888882107,0.910400390836969,0.0243530273494201,0.999969481490524,-0.849418015891292,-0.132606395789805,0,0,-0.284543097089578,-0.268162474109126,1
1.23099999999998,0.234870448927274,0.495132297738578,0.925476074434229,0.0111694335963506,0.999969481490524,-0.861618284341714,-0.133120431291955,0,0,-0.284728540576095,-0.269021908185664,1
1.23199999999998,-0.656270027771844,0,0.93273925802967,0.0045166015635516,0.999969481490524,-0.867882568356393,-0.133353487584666,0,0,-0.285275129608003,-0.268477234036087,1
1.23299999999998,0.99954222235786,0.0366222113711966,0.938232422093449,0.997314453357205,0.999969481490524,-0.873503657096239,-0.133571900518637,0,0,-0.287033843513096,-0.268088021366824,1
1.23399999999997,0.13281655323954,0.667012543107395,0.947204590064288,0.990966797105727,0.999969481490524,-0.878101259834191,-0.133776590163231,0,0,-0.28490980266638,-0.26830733106416,1
1.23499999999997,-0.675313577684866,-0.662617877742851,0.954406738503465,0.984436035385457,0.999969481490524,-0.881958611773442,-0.133968418778151,0,0,-0.284755303390052,-0.26817321504279,1
1.23599999999997,0.356944486831263,0.0405285805841243,0.96173095725517,0.978027343977715,0.999969481490524,-0.88547281921429,-0.134148194445723,0,0,-0.286450425985825,-0.26731086179315,1
1.23699999999997,0.99954222235786,0.151860103152562,0.968750000225555,0.971374511944916,0.999969481490524,-0.889138784901093,-0.134316674474964,0,0,-0.286248864099151,-0.266557499851833,1
1.23799999999997,-0.43946653645436,-0.424817651905881,0.97607421897726,0.965576172099816,0.999969481490524,-0.893192808666062,-0.134474568591763,0,0,-0.285851831103422,-0.265972616983438,1
1.23899999999997,-1.00003051850948,-1.00003051850948,0.983276367416437,0.958984375223281,0.999969481490524,-0.897111461131263,-0.134622541928614,0,0,-0.285469495882995,-0.264753204148587,1
1.23999999999997,0.540543839838862,-1.00003051850948,0.990356445543085,0.952514648659275,0.999969481490524,-0.901391719835473,-0.134761217826505,0,0,-0.285299223867781,-0.263532579183537,1
1.24099999999997,0.99954222235786,0.100100711081271,0.997619629138526,0.945983886939004,0.999969481490524,-0.906500363778559,-0.134891180460756,0,0,-0.284865685806335,-0.263103680418178,1
1.24199999999997,0.71584215826899,0.1254921109653,0.00488281250113687,0.939514160374998,0.999969481490524,-0.912123080574015,-0.135012977301866,0,0,-0.284515313640168,-0.262625530693036,1
1.24299999999997,0.707052827539903,-1.00003051850948,0.00970458984600953,0.93316650412352,0.999969481490524,-0.917739061344786,-0.135127121421751,0,0,-0.284375233373532,-0.262167255722692,1
1.24399999999997,0.34766685995056,-1.00003051850948,0.0186157226605843,0.927246093965891,0.999969481490524,-0.923100827783011,-0.135234093655067,0,0,-0.281591806521779,-0.261529501375953,1
1.24499999999997,-0.41407513657033,-0.529801324503311,0.0252075195371191,0.920837402558149,0.999969481490524,-0.928431366794969,-0.135334344624736,0,0,-0.280752615444816,-0.260326856067476,1
1.24599999999997,-0.246589556566057,0.99954222235786,0.032409667976296,0.914428711150407,0.999969481490524,-0.934008128835393,-0.135428296640208,0,0,-0.281871412298872,-0.259254460280961,1
1.24699999999997,-0.00195318460646382,0.441908017212439,0.0394897461029444,0.908142090055193,0.999969481490524,-0.940063643399735,-0.135516345476449,0,0,-0.281063151353357,-0.25876690617754,1
1.24799999999997,-0.183111056855983,-1.00003051850948,0.0458984375106866,0.901672363491187,0.999969481490524,-0.945962696153625,-0.135598862041148,0,0,-0.280823698028914,-0.258167951667052,1
1.24899999999997,0.0302743614001892,-0.625995666371654,0.0528564453248066,0.895568847864766,0.999969481490524,-0.950964121831876,-0.135676193937177,0,0,-0.279731048335379,-0.257662640567947,1
1.24999999999997,0.995147556993316,0.305673390911588,0.0597534179826624,0.889221191613288,0.999969481490524,-0.955829034054169,-0.135748666926878,0,0,-0.278563971459939,-0.256981055642525,1
1.25099999999997,0.481460005493332,-0.159672841578417,0.0665283203279898,0.883483886924452,0.999969481490524,-0.961174441175299,-0.135816586304338,0,0,-0.277987728016229,-0.256200057732279,1
1.25199999999997,-1.00003051850948,-0.703146458326975,0.0733032226733172,0.877014160360446,0.999969481490524,-0.966561859506821,-0.135880238181453,0,0,-0.277239642386552,-0.255061489522864,1
1.25299999999997,-0.644550920133061,-0.102053895687735,0.0799560547061162,0.870788574421496,0.999969481490524,-0.971749712436546,-0.135939890693177,0,0,-0.276396304752868,-0.254115725225385,1
1.25399999999997,0.296884060182501,0.273445844904935,0.0867309570514436,0.864562988482547,0.999969481490524,-0.97730590702974,-0.135995795127049,0,0,-0.275463572110012,-0.253747476742768,1
1.25499999999997,0.282235175634022,-0.115726187932981,0.0932617187717142,0.858337402543597,0.999969481490524,-0.983727222399446,-0.136048186981746,0,0,-0.274579078553331,-0.253128811592375,1
1.25599999999997,0.185064241462447,-0.524430066835536,0.099853515648249,0.852111816604648,0.999969481490524,-0.990307635843832,-0.136097286959126,0,0,-0.273607804961562,-0.252539306895339,1
1.25699999999997,0.99954222235786,-0.922391430402539,0.106323242212255,0.845825195509434,0.999969481490524,-0.996522913248822,-0.136143301893942,0,0,-0.272489024098246,-0.251977239665127,1
1.25799999999997,0.817896053956725,-1.00003051850948,0.112670898463733,0.83996582050807,0.999969481490524,-1.00278449530355,-0.136186425625134,0,0,-0.271363909134807,-0.251507058660728,1
1.25899999999997,-0.616718039490951,-0.677755058442946,0.118591308621362,0.83374023456912,0.999969481490524,-1.00915681770191,-0.136226839812385,0,0,-0.27003469731967,-0.250660749262942,1
1.25999999999997,-0.232917264320811,-0.541520432142094,0.125183105497896,0.827453613473907,0.999969481490524,-1.01556162187395,-0.13626471470136,0,0,-0.268183538655089,-0.249791612491899,1
1.26099999999997,0.0766624958037049,-0.275887325663015,0.131835937530695,0.821105957222429,0.999969481490524,-1.02230187068684,-0.136300209840875,0,0,-0.266701153762399,-0.249429627985379,1
1.26199999999997,-0.270027771843623,-0.464369640186773,0.13769531253206,0.81286621112676,0.999969481490524,-1.02956669188489,-0.136333474755,0,0,-0.266093666372688,-0.249213617177676,1
1.26299999999997,-0.615253151036103,-0.913602099673452,0.144165039096066,0.808532715032001,0.999969481490524,-1.03711857966439,-0.136364649572928,0,0,-0.264722220008531,-0.251116752642755,1
1.26399999999997,0.430188909573656,-0.137699514755699,0.150695800816337,0.802246093936787,0.999969481490524,-1.04495855192413,-0.136393865619277,0,0,-0.263228008750497,-0.250715628482616,1
1.26499999999997,0.848170415356914,0.520523697622608,0.156921386755286,0.795959472841574,0.999969481490524,-1.05323368751845,-0.136421245967294,0,0,-0.262543501657564,-0.248216733626186,1
1.26599999999997,0.138676107058931,0.327646717734306,0.163269043006764,0.78967285174636,0.999969481490524,-1.06155905832591,-0.136446905957307,0,0,-0.261628416814971,-0.247976206282195,1
1.26699999999997,-0.149418622394482,0.118655964842677,0.169372558633185,0.784057617370053,0.999969481490524,-1.06939391104223,-0.136470953682598,0,0,-0.260562917848934,-0.24774237344059,1
1.26799999999997,-0.177739799188208,-0.137211218604083,0.175842285197191,0.777648925962311,0.999969481490524,-1.07647759798337,-0.136493490444747,0,0,-0.259422284659232,-0.246788138820137,1
1.26899999999997,-0.258796960356456,0.141117587817011,0.181945800823613,0.771911621273475,0.999969481490524,-1.08248112891406,-0.136514611180368,0,0,-0.258475412285539,-0.246016309977233,1
1.26999999999997,0.99954222235786,-1.00003051850948,0.187683105512448,0.766174316584639,0.999969481490524,-1.08819547643513,-0.136534404861032,0,0,-0.257578412179744,-0.245415824328792,1
1.27099999999997,0.614276558732871,-1.00003051850948,0.193298339888756,0.761108398614709,0.966643269142735,-1.0936044278988,-0.13655295486806,0,0,-0.255935489705244,-0.244117420346437,1
1.27199999999997,0.951200903347881,-1.00003051850948,0.198059082077364,0.756408691582365,0.544938505203406,-1.09839260931309,-0.136570339343772,0,0,-0.253806456567354,-0.242113716946688,1
1.27299999999997,-0.616718039490951,-1.00003051850948,0.202392578172123,0.752319336112663,0.134708700827052,-1.10332143671581,-0.136300108674956,0,0,-0.250060746951856,-0.238419635106256,1
1.27399999999997,-0.19190038758507,-1.00003051850948,0.206359863329297,0.748840332205603,-0.364574114200262,-1.10836596702174,-0.132421241090704,0,0,-0.243905967443921,-0.232643673905101,1
1.27499999999997,-1.00003051850948,-1.00003051850948,0.209655761767564,0.7456054689236,-1,-1.1135028938209,-0.125259130153411,0,0,-0.235908974125441,-0.224539952185048,1
1.27599999999997,0.99954222235786,-1.00003051850948,0.212951660205832,0.742431640797861,-1,-1.11868654740738,-0.114254432903806,0,0,-0.225588732036385,-0.214317684738395,1
1.27699999999997,0.99954222235786,-1.00003051850948,0.216369628956627,0.739196777515858,-0.998809778130436,-1.12368457951256,-0.0984780931067327,0,0,-0.214242007946854,-0.203459369581006,1
1.27799999999997,0.99954222235786,-1.00003051850948,0.219604492238631,0.736206054858911,-0.507705923642689,-1.12796865147123,-0.0836930099737997,0,0,-0.203750108420074,-0.193293991825575,1
1.27899999999997,0.99954222235786,-1.00003051850948,0.222839355520634,0.733276367358229,-0.123661000396741,-1.13127708397861,-0.0698471339707047,0,0,-0.19459857107869,-0.184316950945859,1
1.27999999999997,0.99954222235786,-1.00003051850948,0.226013183646373,0.730468750170076,-0.0550553910946989,-1.13367625377599,-0.061093496235061,0,0,-0.187142582422458,-0.176892694527928,1
1.28099999999997,-0.863307596057009,0.99954222235786,0.229248046928376,0.727905273606979,-0.243415631580554,-1.13549611918051,-0.0561917004775919,0,0,-0.180769425414332,-0.170417202453675,1
1.28199999999997,-1.00003051850948,0.99954222235786,0.232177734429058,0.725097656418825,-0.661641285439619,-1.13698567996994,-0.0521877318700878,0,0,-0.174616996495095,-0.163772269807109,1
1.28299999999997,-1.00003051850948,0.99954222235786,0.235290527398533,0.722534179855728,-1,-1.1376006753476,-0.0468159087077726,0,0,-0.16767902300565,-0.156636063436249,1
1.28399999999997,-1.00003051850948,0.99954222235786,0.238525390680536,0.720031738448895,-1,-1.13667971134438,-0.0381859028656561,0,0,-0.159916305000539,-0.148819322749636,1
1.28499999999997,0.99954222235786,0.99954222235786,0.241455078181218,0.71734619157327,-1,-1.13408566086854,-0.0271890897713273,0,0,-0.152475328396766,-0.140666943230289,1
1.28599999999997,0.99954222235786,0.99954222235786,0.244140625056843,0.714904785322702,-0.451796014282662,-1.1297495439733,-0.0168832268215993,0,0,-0.145318065539028,-0.13317195033496,1
1.28699999999997,0.99954222235786,-1.00003051850948,0.247253418026318,0.712341308759605,-0.308969389934996,-1.12410189002842,-0.00722490033850672,0,0,-0.138852236623374,-0.126917502191667,1
1.28799999999997,-0.13037507248146,0.399426252021851,0.250122070370736,0.710021972821565,-0.523514511551256,-1.11754416640784,-0.00288662026434408,0,0,-0.134037254313298,-0.121970688152843,1
1.28899999999997,-1.00003051850948,0.972685934018983,0.252990722715154,0.707275390789675,-0.688192388683737,-1.11075026221258,-4.88774194071946e-005,0,0,-0.129622799485388,-0.117102096933405,1
1.28999999999997,-1.00003051850948,-0.854029969176305,0.255676269590779,0.704467773601522,-0.904080324716941,-1.10360051679679,0.00445512119915696,0,0,-0.124661720276599,-0.112177016272737,1
1.29099999999997,-1.00003051850948,-1.00003051850948,0.258361816466405,0.701660156413368,-1,-1.09538396285985,0.0100919469190756,0,0,-0.119254823564817,-0.107530663457393,1
1.29199999999997,0.99954222235786,-1.00003051850948,0.261718750060936,0.697937011881251,-1,-1.08693738910182,0.0172307017252517,0,0,-0.113535758520777,-0.102790079930512,1
1.29299999999997,0.99954222235786,-1.00003051850948,0.263488769592598,0.695861816568268,-0.723654896694845,-1.07909192190677,0.0247455868621868,0,0,-0.108774806562778,-0.0992122707742314,1
1.29399999999997,0.99954222235786,-1.00003051850948,0.2675781250623,0.693237304848907,-0.609210486159856,-1.07143241559742,0.0317882978403466,0,0,-0.103754497075553,-0.0955012306866299,1
1.29499999999997,-0.151860103152562,-0.481460005493332,0.270263671937926,0.69067382828581,-0.577166051210059,-1.06364006503141,0.0360126191163493,0,0,-0.100443191937988,-0.0914374232298002,1
1.29599999999997,0.99954222235786,0.540055543687246,0.2733764649074,0.688232422035242,-0.425611133152257,-1.05587811213748,0.0389875801148427,0,0,-0.0985650302910592,-0.0883901304083961,1
1.29699999999997,-0.911160618915372,0.99954222235786,0.276916503970725,0.685424804847088,-0.506118961149937,-1.04842469781462,0.0415001160647296,0,0,-0.0960387382535993,-0.0856248009427499,1
1.29799999999997,-1.00003051850948,-1.00003051850948,0.279846191471407,0.682800293127727,-0.619586779381695,-1.04102700412109,0.0425517879742693,0,0,-0.0947152869818808,-0.083416202747455,1
1.29899999999997,-1.00003051850948,0.737327188940092,0.282897949284617,0.68023681656463,-0.779564806054872,-1.03294319740375,0.0442295492158046,0,0,-0.0930002982334511,-0.0812663912197035,1
1.29999999999997,-0.340830713827937,0.99954222235786,0.286315918035413,0.677734375157797,-1,-1.02474070415887,0.0467774356794227,0,0,-0.0904699032007806,-0.078591930442411,1
1.30099999999997,0.664082766197699,-0.266609698782312,0.289245605536095,0.6751708985947,-0.911770989104892,-1.01633025989426,0.0505406483279228,0,0,-0.0880729894550104,-0.0753990559662998,1
1.30199999999997,0.99954222235786,0.661152989288003,0.292236328193042,0.672607422031604,-0.758445997497482,-1.00680462436878,0.0559626077940895,0,0,-0.0855161786658114,-0.0722269070651881,1
1.30299999999997,0.84377574999237,-1.00003051850948,0.295043945381195,0.669921875155978,-0.709189123203223,-0.996691964283664,0.0602853446325618,0,0,-0.0830401133750952,-0.0697015258167025,1
1.30399999999997,0.639667958616901,-1.00003051850948,0.298645019600784,0.667114257967825,-0.545609912411878,-0.98634357869474,0.0630182609080411,0,0,-0.0809093764792099,-0.0677887456716412,1
1.30499999999997,0.99954222235786,0.89211706900235,0.301086425851352,0.664367675935935,-0.564409314249092,-0.975959600313314,0.0651559759264846,0,0,-0.0799090587029916,-0.0665967044302342,1
1.30599999999997,0.387707144383068,0.99954222235786,0.304260253977091,0.661804199372838,-0.567339091158788,-0.965885591364893,0.0657529984762884,0,0,-0.0788090989712433,-0.0657791704876295,1
1.30699999999997,-1.00003051850948,-1.00003051850948,0.307373046946566,0.659240722809741,-0.690023499252297,-0.955879067278781,0.0664741372648985,0,0,-0.0772984784325697,-0.0647319722653292,1
1.30799999999997,-0.99954222235786,-0.0566423535874508,0.310424804759776,0.656372070465324,-0.643757438886685,-0.945495657596949,0.0671751543886988,0,0,-0.0764358261063087,-0.0633795718017412,0
1.30899999999997,0.99954222235786,0.99954222235786,0.313476562572987,0.653320312652113,-0.507827997680593,-0.935370760891184,0.0688869072120942,0,0,-0.0753975953509284,-0.0623438972470042,1
1.30999999999997,-0.00683614612262337,-1.00003051850948,0.316528320386197,0.650634765776488,-0.517410809656056,-0.926266869119724,0.0700933339591545,0,0,-0.0746487313369903,-0.0621920377866587,1
1.31099999999997,-0.629902035584582,-0.593768120365001,0.319519043043144,0.647644043119541,-0.52577288125248,-0.917524525515263,0.0700553023092643,0,0,-0.074152143501053,-0.0620578847903034,0
1.31199999999997,0.194830164494766,0.0732444227423933,0.322753906325147,0.644653320462595,-0.635212256233406,-0.908900022149786,0.0701020486957302,0,0,-0.0736088545206043,-0.0618549518236175,0
1.31299999999997,0.704611346781823,0.99954222235786,0.326354980544735,0.64196777358697,-0.54658650471511,-0.901007411757608,0.0702177510150946,0,0,-0.0731363923875379,-0.0618342461158015,0
1.31399999999997,0.316415906247139,-0.32471694082461,0.329711914139267,0.638854980617495,-0.605914487136448,-0.893413751791778,0.0712670909835287,0,0,-0.0733392716778347,-0.061470354921976,0
1.31499999999997,-0.961943418683431,-1.00003051850948,0.332885742265006,0.635498047022963,-0.587115085299234,-0.885383960197215,0.0714885371238302,0,0,-0.0737230045674958,-0.0613218438835501,0
1.31599999999997,-0.690939054536576,-1.00003051850948,0.336975097734708,0.632202148584696,-0.622577593310343,-0.87722745466816,0.07220614303019,0,0,-0.073576939415832,-0.0618651662126107,0
1.31699999999997,-0.650410473952452,-0.792504654072695,0.340820312579353,0.628540039208843,-0.676473281044954,-0.86957180719223,0.0727170321557418,0,0,-0.0742246678915643,-0.0625656819522553,0
1.31799999999997,0.465834528641621,-0.732932523575549,0.344848632892791,0.624816894676727,-0.666463209936827,-0.862666865113265,0.0735007108656096,0,0,-0.0754428689602035,-0.0634370518728308,0
1.31899999999997,0.868190557573168,0.00292977690969573,0.349243164143815,0.621215820457138,-0.625629444257942,-0.856428891398945,0.0746985189539484,0,0,-0.0764728658410924,-0.0646698828375649,0
1.31999999999997,0.99954222235786,0.493179113132115,0.353576660238573,0.6171875001437,-0.511551255836665,-0.850554682369799,0.0757350047333376,0,0,-0.0781290646278934,-0.0658558882593489,0
1.32099999999997,-0.0468764305551317,-1.00003051850948,0.358215332114654,0.61297607436147,-0.526261177404096,-0.844582043801512,0.0763552969894691,0,0,-0.080264424325148,-0.0675496978572821,0
1.32199999999997,-0.348643452253792,0.021973326822718,0.362854003990734,0.608459472797918,-0.486281929990539,-0.838254530647997,0.0759558253926343,0,0,-0.0826988816217754,-0.0699659061427046,0
1.32299999999997,-0.0576189458906827,0.99954222235786,0.367797851648135,0.602478027484025,-0.489883114108707,-0.831980340872314,0.0757079222115972,0,0,-0.0853681992445924,-0.0728162878058421,0
1.32399999999997,-0.176763206884976,0.99954222235786,0.372924804774328,0.598876953264437,-0.453382976775414,-0.825234634612227,0.0751318727853843,0,0,-0.0882743875823153,-0.0774781209724834,0
1.32499999999996,-0.28370006408887,0.477065340128788,0.378112793056786,0.593872070450772,-0.50282296212653,-0.81743558204577,0.0746229788719652,0,0,-0.0915955711073242,-0.0809284551177294,0
1.32599999999996,-0.815454573198645,-0.383312479018525,0.383544921964301,0.588684082168314,-0.498062074648274,-0.808918915063706,0.0738322489703709,0,0,-0.0949731049680327,-0.0831059296123647,0
1.32699999999996,0.00488296151615955,-1.00003051850948,0.389282226653137,0.583740234510913,-0.509109775078585,-0.799662999550138,0.0735162634582806,0,0,-0.0984220914332471,-0.086815371495742,0
1.32799999999996,0.531266212958159,0.99954222235786,0.394531250091859,0.578308105603398,-0.450941496017335,-0.790570495243661,0.0731792000663581,0,0,-0.102260316976793,-0.0902375148289235,0
1.32899999999996,-0.0175786614581744,0.661152989288003,0.400024414155638,0.572570800914562,-0.426709799493393,-0.782359147321065,0.072958297840071,0,0,-0.105751275685335,-0.0938002080800153,0
1.32999999999996,-1.00003051850948,-0.638203070162053,0.407714843844929,0.564819336069007,-0.464857936338389,-0.774220932120427,0.0722511722478171,0,0,-0.108902397146006,-0.0981418351787279,0
1.33099999999996,-0.225104525894955,-0.201666310617389,0.414245605565199,0.559143066536436,-0.478530228583636,-0.765563369289907,0.0713801441215587,0,0,-0.114496130096794,-0.104721416240387,0
1.33199999999996,0.99954222235786,-0.0561540574358348,0.42034912119162,0.553222656378807,-0.436536759544664,-0.757158162792314,0.0708918237544732,0,0,-0.1208073763045,-0.110769246465187,0
1.33299999999996,-0.126956999420148,-0.604998931852168,0.427124023536948,0.546813964971065,-0.432325205236976,-0.749759187436816,0.0705517332950797,0,0,-0.125072053521676,-0.114522286012709,0
1.33399999999996,-0.113284707174902,-1.00003051850948,0.433898925882275,0.540283203250794,-0.444898831141087,-0.742797383835322,0.069871971573189,0,0,-0.129423302058063,-0.118921601804246,0
1.33499999999996,0.536637470625935,-1.00003051850948,0.440795898540131,0.533447265749203,-0.413830988494522,-0.736143770622134,0.0691987116088813,0,0,-0.134236024838014,-0.12371339655653,0
1.33599999999996,0.533219397564623,-0.109378337961974,0.447814941510515,0.526550293091347,-0.381603442487869,-0.730102339877158,0.0686758558417653,0,0,-0.138927756030383,-0.128715810211394,0
1.33699999999996,-0.389172032837916,-0.186040833765679,0.454895019637164,0.519531250120963,-0.377208777123325,-0.724488922909549,0.0679187456089985,0,0,-0.143704892432641,-0.13391683714269,0
1.33799999999996,-0.317392498550371,-0.426770836512345,0.461914062607548,0.512573242306843,-0.387401959288308,-0.719001828765485,0.0669321289775311,0,0,-0.148455519627102,-0.139065532279243,0
1.33899999999996,-0.32715842158269,-0.905789361247597,0.46948242198431,0.505920410274044,-0.411694692831202,-0.713970412210187,0.0659697200648896,0,0,-0.152919060514385,-0.143968958702549,0
1.33999999999996,-0.473647267067476,-0.744163335062716,0.477233886829865,0.498229980584753,-0.411389507736442,-0.709762859008268,0.0651554171961271,0,0,-0.157598532905834,-0.148136579991223,0
1.34099999999996,0.905789361247597,0.190435499130222,0.485229492300476,0.490600586051727,-0.371471297341838,-0.706165510687746,0.0646011357980076,0,0,-0.162761039798418,-0.152818416755123,0
1.34199999999996,0.6059755241554,-0.0698263496810816,0.493041992302295,0.482849121206172,-0.308725241859188,-0.703110287427937,0.0640790570916718,0,0,-0.168143206849682,-0.158343799239198,0
1.34299999999996,-0.163579210791345,-0.353038117618336,0.501037597772907,0.474914550891825,-0.335032197027497,-0.700143242499205,0.0632465838635983,0,0,-0.173428380347696,-0.16376346376428,0
1.34399999999996,0.160161137730033,0.00634784997100742,0.509460449337368,0.467529296983855,-0.3504135258034,-0.696883253295851,0.0619269558751346,0,0,-0.178456118829188,-0.169247835936336,0
1.34499999999996,0.117191076387829,-0.207037568285165,0.517700195433036,0.459350586044451,-0.316293832209235,-0.693821273085718,0.0609164171858387,0,0,-0.18378528336077,-0.173948743016508,0
1.34599999999996,-0.0126956999420148,-0.516129032258065,0.526367187622554,0.45092773447999,-0.339732047486801,-0.690900154587273,0.0601016138283944,0,0,-0.189092001242937,-0.178665475669812,0
1.34699999999996,-0.00732444227423933,-0.626972258674886,0.535034179812072,0.442321777446736,-0.333017975402081,-0.687916229941738,0.0590446612575655,0,0,-0.194365327583615,-0.184243630082823,0
1.34799999999996,0.164555803094577,-0.146977141636402,0.543029785282684,0.433776855569747,-0.319467757194739,-0.685215363853238,0.0582556295481744,0,0,-0.199764265034485,-0.189928826072477,0
1.34899999999996,-0.0209967345194861,-0.219244972075564,0.55181884778473,0.425048828223964,-0.342173528244881,-0.6828700129589,0.0574584497803824,0,0,-0.204147485328269,-0.19543973913942,0
1.34999999999996,0.287606433301798,-0.415051728873562,0.559143066536436,0.41613769540939,-0.317087313455611,-0.68068986901659,0.0565948599947301,0,0,-0.208391395427048,-0.200742645159962,0
1.35099999999996,0.571794793542283,-0.546403393658254,0.569946289195201,0.407897949313721,-0.3075655384991,-0.678688335234366,0.0559807445230076,0,0,-0.211662925852219,-0.206131800558498,0
1.35199999999996,0.203131199072237,-0.655781731620228,0.578796386853512,0.398681640717825,-0.301889095736564,-0.676887915330384,0.0551895357794197,0,0,-0.21697648355342,-0.210725229754263,0
1.35299999999996,0.323252052369762,-0.444349497970519,0.587951660293143,0.389282226653137,-0.279793694875942,-0.675111412202998,0.0543661764771566,0,0,-0.223649663349674,-0.215400807492025,0
1.35399999999996,0.380870998260445,-0.0268562883388775,0.597167968889039,0.379882812588448,-0.273567918942839,-0.673423218803855,0.0535457470237477,0,0,-0.228182795277228,-0.221097114872652,0
1.35499999999996,-0.244148075807978,-0.321787163914914,0.606994629047577,0.370239257898703,-0.282357249671926,-0.671856292101349,0.0525869009769745,0,0,-0.232886970160733,-0.226695405464716,0
1.35599999999996,0.0957060457167272,-0.369640186773278,0.61602783217468,0.361022949302807,-0.288155766472366,-0.670178862397096,0.0516347747582296,0,0,-0.238035499362004,-0.232221112750264,0
1.35799999999996,0.209967345194861,-0.209479049043245,0.637451172023418,0.338623046953842,-0.250740073854793,-0.667512579668253,0.0501024728658117,0,0,-0.246830741438941,-0.242099582554837,0
1.35999999999996,0.214362010559404,-0.0410168767357402,0.657348632965551,0.317016601636311,-0.219550157170324,-0.665256852047827,0.0483204059390741,0,0,-0.261690269812751,-0.259699866717166,0
1.36199999999996,0.268562883388775,-0.190435499130222,0.677612304845269,0.295654296943837,-0.245735038300729,-0.66243896171329,0.0462510272194658,0,0,-0.269634296243977,-0.27166427869066,0
1.36399999999996,0.321298867763298,-0.541032135990478,0.698242187662572,0.274597168032685,-0.210882900479141,-0.659298484118306,0.0446748790483726,0,0,-0.278293529835903,-0.281464752770068,0
1.36599999999996,0.183599353007599,-0.462904751731925,0.719604492355046,0.252075195371191,-0.215399639881588,-0.656094033391101,0.0429250305571733,0,0,-0.286918004230482,-0.291602399821381,0
1.36799999999996,0.109378337961974,-0.439954832605976,0.741516113453898,0.229431152397169,-0.240668965727714,-0.653485545543855,0.0413512627202031,0,0,-0.2963616008028,-0.302794599043723,0
1.36999999999996,0.41407513657033,-0.404797509689627,0.763977050959127,0.207031250048203,-0.202703939939573,-0.65173781467131,0.0401258101939166,0,0,-0.305829196938622,-0.312048604510711,0
1.37199999999996,0.321787163914914,-0.0898464918973357,0.786865234558206,0.183227539105161,-0.197454756309702,-0.650497721936155,0.038590324877453,0,0,-0.314616826799195,-0.321559067515988,0
1.37399999999996,0.19434186834315,-0.197271645252846,0.81097412128257,0.159179687537062,-0.185613574633015,-0.64889597701135,0.037268896380363,0,0,-0.324583446471346,-0.331834472230123,0
1.37599999999996,0.218756675923948,-0.298348948637349,0.835815429882103,0.135437011750284,-0.171758171330912,-0.646721657497477,0.0357945382180447,0,0,-0.335950724975452,-0.340829703516512,0
1.37799999999996,0.307626575518052,-0.327646717734306,0.861633300981865,0.110046386744372,-0.170903653065584,-0.644871443939936,0.0344414932816395,0,0,-0.347208030684329,-0.350195714133726,0
1.37999999999996,0.363780632953887,-0.392590105899228,0.888305664269325,0.0850830078323099,-0.160405285805841,-0.643318297087312,0.0330239890827216,0,0,-0.359554302782394,-0.360763761962186,0
1.38199999999996,0.169438764610736,-0.36817529831843,0.914672851775464,0.0581054687635287,-0.0996124149296548,-0.641827209074584,0.0314531878709739,0,0,-0.370828671167404,-0.369695604742776,0
1.38399999999996,0.23780022583697,-0.311044648579363,0.942687988500737,0.0307006836008981,-0.126285592211676,-0.640676518626317,0.0294294366667818,0,0,-0.38256686680229,-0.381725598517657,0
1.38499999999996,0.231940672017579,-0.244148075807978,0.953674316628295,0.0201416015671896,-0.112857448042238,-0.640311437653485,0.0287327192143692,0,0,-0.388927474551309,-0.387476783504265,0
1.38599999999996,0.348643452253792,-0.233893856624043,0.971313476788652,0.00274658203188949,-0.124271370586261,-0.640005668982995,0.0280131323867413,0,0,-0.391765254123171,-0.389676198044546,0
1.38699999999996,0.35010834070864,-0.163090914639729,0.985656738510741,0.988586426011423,-0.118961149937437,-0.639740249098601,0.0272233097672705,0,0,-0.398268976068694,-0.395580442915167,0
1.38799999999996,0.403820917386395,-0.150395214697714,0.000122070312528422,0.974548340070655,-0.0833155308694723,-0.639455473532224,0.0265812446173976,0,0,-0.408004907379221,-0.405017684353049,0
1.38899999999996,0.259285256508072,-0.229010895107883,0.0149536132847317,0.961120605692528,-0.110232856227302,-0.639072736671447,0.0259338668715332,0,0,-0.413777526736181,-0.410311608338508,0
1.38999999999996,0.32227546006653,-0.244636371959594,0.0297241211006707,0.946838379126703,-0.102114932706687,-0.63855570000179,0.0250207010729402,0,0,-0.41974359099718,-0.414506796289827,0
1.39099999999996,0.227057710501419,-0.281746879482406,0.0443725586040813,0.932189941623292,-0.0935697500534074,-0.637989857236999,0.0243963334720886,0,0,-0.425651755651672,-0.418685895605563,0
1.39199999999996,0.229987487411115,-0.381847590563677,0.0590209961074919,0.917602539276146,-0.121158482619709,-0.637421682330726,0.0237414020180786,0,0,-0.431030313081483,-0.423960262734432,0
1.39299999999996,0.315927610095523,-0.464857936338389,0.073242187517053,0.902832031460207,-0.0944853053376873,-0.636889250175805,0.0230541537246245,0,0,-0.43592390143166,-0.429218477687806,0
1.39399999999996,0.302743614001892,-0.525894955290384,0.0846557617384605,0.885742187706228,-0.0852076784569842,-0.636469639930798,0.022647281251706,0,0,-0.440059054384867,-0.434290648972136,0
1.39499999999996,0.308114871669668,-0.468764305551317,0.102844238305195,0.874145508016028,-0.0737937559129612,-0.636156204322812,0.0220366501002375,0,0,-0.440498124541969,-0.441819965318834,0
1.39599999999996,0.355967894528031,-0.322763756218146,0.116333007839586,0.858947754106239,-0.0753807184057131,-0.635960241984359,0.0213846214338244,0,0,-0.445238961905343,-0.445489271925664,0
1.39699999999996,0.30176702169866,-0.25586718344676,0.13146972659311,0.843505859571394,-0.0628681295205542,-0.635881867499742,0.0206754294859595,0,0,-0.451954933973341,-0.446904626067425,0
1.39799999999996,0.194830164494766,-0.277840510269478,0.145751953158936,0.827758789255228,-0.06579790643025,-0.635857890341982,0.0200244413273962,0,0,-0.454977617348634,-0.452415179311708,0
1.39899999999996,0.212897122104556,-0.270516067995239,0.16046142581861,0.812011718939061,-0.0566423535874508,-0.635827429992222,0.0193067787022447,0,0,-0.458692095839136,-0.45820170299912,0
1.39999999999996,0.280770287179174,-0.246101260414441,0.175170898478285,0.797485351748179,-0.0413830988494522,-0.635841610391048,0.0186593969713122,0,0,-0.46172974626126,-0.46397797908198,0
1.40099999999996,0.278328806421094,-0.297860652485733,0.190246582075545,0.781311035338163,-0.0479140598773156,-0.635935261757833,0.0179739763666777,0,0,-0.465083924309953,-0.468120138825142,0
1.40199999999996,0.269539475692007,-0.275887325663015,0.205200195360277,0.765380859553204,-0.0374767296365246,-0.636060753839943,0.0172004302295969,0,0,-0.468645526525935,-0.47248778754176,0
1.40299999999996,0.253913998840297,-0.257332071901608,0.220520019582594,0.749023437674396,-0.0452894680623798,-0.636207514374711,0.0165316375112298,0,0,-0.472262460090569,-0.47811694008377,0
1.40399999999996,0.207037568285165,-0.287118137150182,0.236083984429968,0.732727050951851,-0.043885616626484,-0.636385674063811,0.0158151311017271,0,0,-0.475929383055987,-0.483607434439331,0
1.40499999999996,0.259285256508072,-0.302255317850276,0.251831054746134,0.716308593916779,-0.0443739127780999,-0.63659335841458,0.0152108143086057,0,0,-0.480026076592599,-0.489152342465877,0
1.40599999999996,0.307138279366436,-0.329111606189154,0.266113281311959,0.701232910319519,-0.0230109561449019,-0.636853510314321,0.014632398215755,0,0,-0.484339182686733,-0.494429037924206,0
1.40699999999996,0.298837244788965,-0.343272194586016,0.282104492253183,0.684814453284446,-0.021790215765862,-0.637176902731001,0.0140945232147981,0,0,-0.487035529042506,-0.498096340772499,0
1.40799999999996,0.292001098666341,-0.376476332895901,0.29815673835067,0.667968750155524,-0.0138554033021027,-0.637533976348493,0.0134067754060357,0,0,-0.489867635630864,-0.501575986595164,0
1.40899999999996,0.267586291085543,-0.395519882808924,0.311889648510117,0.647216797025692,-0.00311288796655171,-0.637932520734338,0.0127517447242104,0,0,-0.494458561703749,-0.506775005071083,0
1.40999999999996,0.242194891201514,-0.339365825373089,0.332031250077307,0.634216308741415,-0.00457777642139958,-0.638388139283567,0.0120696511087752,0,0,-0.496354907231877,-0.516377648055918,0
1.41099999999996,0.19922482985931,-0.287606433301798,0.351318359456798,0.609130859516824,0.0128788109988708,-0.638924976291735,0.0113380556866313,0,0,-0.502577528778479,-0.521248388919512,0
1.41199999999996,0.257820368053224,-0.315439313943907,0.373596191493235,0.591735839981524,-0.00244148075807978,-0.639550954618614,0.0106650221713597,0,0,-0.514458455325017,-0.530538446344457,0
1.41299999999996,0.274910733359783,-0.277352214117862,0.390869140716006,0.572937011852147,0.0197759941404462,-0.640256738451873,0.00988419320366277,0,0,-0.527932312106241,-0.544023748120046,0
1.41399999999996,0.253425702688681,-0.23780022583697,0.405761718844474,0.550781250128239,0.021851252784814,-0.641033243352324,0.00928414171322403,0,0,-0.538416604676998,-0.54989409014274,0
1.41499999999996,0.253913998840297,-0.216803491317484,0.4249877930677,0.539733886844417,0.0299691763054292,-0.641832462617538,0.008530777339398,0,0,-0.540305543732274,-0.560597508244356,0
1.41599999999995,0.231940672017579,-0.246589556566057,0.444458007915983,0.515991211057639,0.0336924344615009,-0.642638696285994,0.00780690616325076,0,0,-0.544209645348534,-0.562274456045886,0
1.41699999999995,0.221686452833644,-0.302743614001892,0.46673583995242,0.497863769647168,0.0289925840021973,-0.643435928308811,0.00705872312796821,0,0,-0.552849404943993,-0.565585446872269,0
1.41799999999995,0.233405560472427,-0.395519882808924,0.482055664174737,0.482177734487266,0.043824579607532,-0.644241179486489,0.00632553902511211,0,0,-0.564265332060237,-0.576357653312506,0
1.41899999999995,0.256355479598376,-0.404309213538011,0.504821777461288,0.45672607432509,0.0468764305551317,-0.645101273435162,0.00567882930606529,0,0,-0.570509041879931,-0.577768561047179,0
1.41999999999995,0.245612964262825,-0.389660328989532,0.52050781262119,0.441162109477716,0.0620136112552263,-0.646053153788501,0.00494523514771347,0,0,-0.576928235383699,-0.587048874710505,0
1.42099999999995,0.253913998840297,-0.3427838984344,0.54296875012642,0.420959472754262,0.0599993896298105,-0.647111423663391,0.00423149571389975,0,0,-0.583380374582548,-0.595659303238444,0
1.42199999999995,0.26563310647908,-0.303231910153508,0.56152343763074,0.402404785249942,0.0636005737479781,-0.648264261203639,0.00343245960638732,0,0,-0.589128948931973,-0.59808325148145,0
1.42299999999995,0.319345683156835,-0.321298867763298,0.580017089978796,0.385009765714642,0.0701315347758416,-0.649498730930715,0.00270094573303148,0,0,-0.597634895434903,-0.603599235875128,0
1.42399999999995,0.317392498550371,-0.318857387005219,0.598083496233002,0.366088867272737,0.0738547929319132,-0.650776748255574,0.00198443297200244,0,0,-0.601343514454607,-0.605755310727025,0
1.42499999999995,0.30176702169866,-0.25830866420484,0.614624023580603,0.346923828205775,0.0880153813287759,-0.65206829382634,0.00125678995401411,0,0,-0.604312963381625,-0.608191733125766,0
1.42599999999995,0.241706595049898,-0.210943937498093,0.632995605616131,0.32757568367002,0.0719626453444014,-0.653362966007263,0.000542855301103515,0,0,-0.605013998815757,-0.61242230723537,0
1.42699999999995,0.221686452833644,-0.223639637440107,0.651062011870337,0.308105468821736,0.0822168645283364,-0.654646237784419,-0.000247967485661355,0,0,-0.605999486721806,-0.616854455420706,0
1.42799999999995,0.252937406537065,-0.248542741172521,0.669189453280808,0.289916992255002,0.0900296029541917,-0.655912321953302,-0.000851087659596617,0,0,-0.608567606671684,-0.621337929424693,0
1.42899999999995,0.310556352427747,-0.235847041230506,0.687683105628864,0.270446777406718,0.0950956755272073,-0.657169227662358,-0.0015044735509801,0,0,-0.610741824637142,-0.624319815012714,0
1.42999999999995,0.249031037324137,-0.270027771843623,0.705993652508127,0.250549316464586,0.0915555284279916,-0.658434323822403,-0.00218397618697151,0,0,-0.613264931336632,-0.627138917959822,0
1.43099999999995,0.343272194586016,-0.329111606189154,0.724670410324975,0.231018066460038,0.100100711081271,-0.659683218279674,-0.00286434008386051,0,0,-0.615834272082738,-0.631637901414596,0
1.43199999999995,0.29932554094058,-0.326670125431074,0.743530273610617,0.21118164067417,0.119449446089053,-0.660928981541178,-0.00347151896357762,0,0,-0.618452233609912,-0.635935821329877,0
1.43299999999995,0.287118137150182,-0.317392498550371,0.762390136896258,0.191528320357094,0.116397595141453,-0.662191998872878,-0.00411401506547068,0,0,-0.621546516529958,-0.639947051648226,0
1.43399999999995,0.266121402630696,-0.321298867763298,0.781982422057069,0.171508789102433,0.119449446089053,-0.663475893073007,-0.00488249312267666,0,0,-0.624674063199489,-0.643869619944109,0
1.43499999999995,0.234382152775658,-0.364268929105503,0.80169677753041,0.153137207066905,0.129703665272988,-0.664803290358633,-0.00557644792366958,0,0,-0.628402879850734,-0.647750422978107,0
1.43599999999995,0.26563310647908,-0.34522537919248,0.827758789255228,0.125305175810425,0.12762840662862,-0.666178850763057,-0.00625303861440185,0,0,-0.632848420475849,-0.6500263421032,0
1.43699999999995,0.27881710257271,-0.331064790795618,0.848266601760002,0.104980468774443,0.129825739310892,-0.667632587393284,-0.00697527873386583,0,0,-0.644037396063748,-0.660631341934672,0
1.43799999999995,0.294442579424421,-0.300790429395428,0.869079590046098,0.0841674804883468,0.138737144077883,-0.669171228099292,-0.00763429708629412,0,0,-0.655402623112927,-0.672703443157726,0
1.43899999999995,0.269051179540391,-0.220709860530412,0.890136718957251,0.0634155273585151,0.150822473830378,-0.670761974648893,-0.00827079971063134,0,0,-0.660409191822764,-0.676457878187668,0
1.43999999999995,0.275399029511399,-0.193365276039918,0.911254883024668,0.0421752929785697,0.138554033021027,-0.672378425525777,-0.00894392569463109,0,0,-0.665735557767422,-0.68047625376378,0
1.44099999999995,0.315439313943907,-0.229499191259499,0.932678222873406,0.0228881835990791,0.143498031556139,-0.673986873651938,-0.00967866181480719,0,0,-0.671066040057059,-0.684710560153422,0
1.44199999999995,0.333017975402081,-0.287606433301798,0.954223633034673,0.00152587890660527,0.171575060274056,-0.675557652962646,-0.010261754912582,0,0,-0.676455763384577,-0.687088870913292,0
1.44299999999995,0.277352214117862,-0.303231910153508,0.975891113508467,0.980224609603226,0.17352824488052,-0.677074608036059,-0.010850717326961,0,0,-0.682027729112122,-0.689502537876929,0
1.44399999999995,0.27881710257271,-0.293465987121189,0.997436523669734,0.958801269754488,0.177129428998688,-0.678563259810359,-0.0116440670151258,0,0,-0.687567850439566,-0.693992704062426,0
1.44499999999995,0.251960814233833,-0.292489394817957,0.0191650390669622,0.937438965062015,0.167607654042177,-0.680079858050999,-0.0124043616199829,0,0,-0.692776845852362,-0.698281772678389,0
1.44599999999995,0.247566148869289,-0.347178563798944,0.0410766601658139,0.916076660369541,0.185735648670919,-0.681642361782752,-0.0131478467658203,0,0,-0.697723716523375,-0.702364757208657,0
1.44699999999995,0.24268318735313,-0.436048463393048,0.0608520507954182,0.89605712911488,0.17932676168096,-0.683254826011009,-0.0137627536920119,0,0,-0.702776605636112,-0.706143916611302,0
1.44799999999995,0.285164952543718,-0.417004913480026,0.0819702148628352,0.874389648641085,0.186712240974151,-0.684935597573215,-0.0144948807102169,0,0,-0.705423101013617,-0.708254946355176,0
1.44899999999995,0.286629840998566,-0.379406109805597,0.103210449242781,0.852416992385969,0.189886165959655,-0.686729222547475,-0.0151259062839332,0,0,-0.707048873342158,-0.710567080718935,0
1.44999999999995,0.234382152775658,-0.308114871669668,0.124145507841405,0.830322265818324,0.192632831812494,-0.688627605853744,-0.015780780172635,0,0,-0.7101749520683,-0.714866246592109,0
1.45099999999995,0.225104525894955,-0.298348948637349,0.145202636752558,0.807983398625623,0.202459791863765,-0.690599462267777,-0.0164217950114485,0,0,-0.712919091078624,-0.719372681751865,0
1.45199999999995,0.263191625721,-0.279305398724326,0.165954589882389,0.785583496276658,0.196844386120182,-0.692630763045576,-0.0170461482203433,0,0,-0.715314486264656,-0.724017621503703,0
1.45299999999995,0.227057710501419,-0.253913998840297,0.187072753949806,0.764526367365505,0.204229865413373,-0.694718247589424,-0.0177157596659367,0,0,-0.717369746172998,-0.728713925048879,0
1.45399999999995,0.206549272133549,-0.264656514175848,0.207824707079638,0.741882324391483,0.227607043671987,-0.696841867486616,-0.0182950196088312,0,0,-0.71936617566295,-0.731737034311987,0
1.45499999999995,0.210455641346477,-0.266121402630696,0.229187011772112,0.719360351729989,0.227668080690939,-0.698978855007532,-0.0189013803972211,0,0,-0.721284740312559,-0.734884003875257,0
1.45599999999995,0.210455641346477,-0.25830866420484,0.250732421933378,0.696838379068495,0.244392223883786,-0.701149788067195,-0.0196706282193333,0,0,-0.723383200883625,-0.739457379702389,0
1.45699999999995,0.209967345194861,-0.276863917966247,0.272399902407173,0.674072265781945,0.239875484481338,-0.703376162193092,-0.0203920675424275,0,0,-0.726235028148548,-0.743642348411251,0
1.45799999999995,0.207037568285165,-0.280281991027558,0.294189453193496,0.651489257964187,0.248359630115665,-0.705649200160422,-0.0212119636859419,0,0,-0.729258791018695,-0.747851973221246,0
1.45899999999995,0.21485030671102,-0.322763756218146,0.316284179761141,0.628356933740051,0.245307779168065,-0.707977933546523,-0.021941511468799,0,0,-0.732365503219663,-0.751874105600877,0
1.45999999999995,0.204596087527085,-0.344737083040864,0.338806152422634,0.605163574359651,0.251045258949553,-0.710364488194012,-0.0226981630417726,0,0,-0.735750490348905,-0.756052680172083,0
1.46099999999995,0.187017426068911,-0.40919217505417,0.366882324304171,0.576293945446679,0.262398144474624,-0.712820698734299,-0.0233810344384528,0,0,-0.739722987952131,-0.760638287174961,0
1.46199999999995,0.188482314523759,-0.369151890621662,0.389892578215779,0.552490234503637,0.265205847346416,-0.715358940254667,-0.0240703278688375,0,0,-0.749950560735897,-0.771177351449374,0
1.46299999999995,0.180181279946287,-0.354991302224799,0.413574218846293,0.52862548840433,0.279488509781182,-0.718006924661812,-0.0248139183993825,0,0,-0.760101589255091,-0.781753030241334,0
1.46399999999995,0.174810022278512,-0.386730552079836,0.437133789164278,0.504516601679967,0.268501846369823,-0.720774778259471,-0.0255349270463339,0,0,-0.764899645216848,-0.786289196415999,0
1.46499999999995,0.19922482985931,-0.379406109805597,0.460998535263585,0.480407714955604,0.28675191503647,-0.723646645814776,-0.0263334288892187,0,0,-0.770001445221862,-0.790880791974291,0
1.46599999999995,0.156254768517106,-0.316415906247139,0.485107421987948,0.458251953231695,0.266243476668599,-0.726631413535228,-0.0269873013006321,0,0,-0.774998020008558,-0.795464310096352,0
1.46699999999995,0.241218298898282,-0.285653248695334,0.509216308712311,0.434082031351068,0.279976805932798,-0.729711421508129,-0.02775699506465,0,0,-0.780277866127068,-0.79764751027692,0
1.46799999999995,0.25586718344676,-0.262703329569384,0.533325195436674,0.410034179782969,0.294320505386517,-0.732882167124836,-0.0283020057919738,0,0,-0.785486666008619,-0.799750104513648,0
1.46899999999995,0.259285256508072,-0.277840510269478,0.557434082161038,0.385620117277284,0.3045136875515,-0.736082113901742,-0.0289308450866079,0,0,-0.790416797241868,-0.80381133480268,1
1.46999999999995,0.209967345194861,-0.263191625721,0.581115722791552,0.361145019615336,0.308359019745476,-0.739253810514849,-0.0296434935154945,0,0,-0.795079688180965,-0.807922525030176,1
1.47099999999995,0.271492660298471,-0.287118137150182,0.604553222797009,0.336730957109651,0.305612353892636,-0.742396028501731,-0.0303990010314905,0,0,-0.799013207715489,-0.812262892055015,1
1.47199999999995,0.363292336802271,-0.316904202398755,0.625793457176954,0.314086914135629,0.308725241859188,-0.74553457603219,-0.0311400989385973,0,0,-0.801978019055492,-0.816336504837058,1
1.47299999999995,0.387218848231452,-0.423841059602649,0.64892578140109,0.289367675848624,0.322641682180242,-0.74866927972938,-0.0318110177706425,0,0,-0.802116104567594,-0.818176516953772,1
1.47399999999995,0.27881710257271,-0.328623310037538,0.671875000156433,0.264892578186675,0.334910122989593,-0.751762227968482,-0.0324665446521601,0,0,-0.801937006308291,-0.82025633842984,1
1.47499999999995,0.192388683736686,-0.353038117618336,0.694335937661663,0.240722656306048,0.320017090365307,-0.75482014996214,-0.0332005304675756,0,0,-0.803653847657859,-0.824226624754222,1
1.47599999999995,0.23535874507889,-0.339365825373089,0.717102050948213,0.216674804737949,0.329721976378674,-0.757881352333237,-0.033993876784532,0,0,-0.804531117508824,-0.827352198331211,1
1.47699999999995,0.315439313943907,-0.39112521744438,0.739868164234764,0.192871093794906,0.328135013885922,-0.760998595589158,-0.0346093325057975,0,0,-0.805144707566643,-0.829812861346664,1
1.47799999999995,0.205084383678701,-0.360362559892575,0.762756347833843,0.169128418008128,0.317575609607227,-0.764177792825337,-0.0352695559751636,0,0,-0.806059234654855,-0.831735202988938,1
1.47899999999995,0.221198156682028,-0.319345683156835,0.7861938478393,0.147277832065541,0.332529679250465,-0.767383375402347,-0.0358746524354745,0,0,-0.807027745130802,-0.83318766408204,1
1.47999999999995,0.331553086947234,-0.283211767937254,0.809265136907172,0.123657226591291,0.344492934965056,-0.770628909376255,-0.0363509448527118,0,0,-0.808666484862983,-0.832439986980171,1
1.48099999999995,0.155278176213874,-0.300790429395428,0.832946777537686,0.0997924804919847,0.347483748893704,-0.773918946584737,-0.0369258788783557,0,0,-0.810439826624118,-0.831641952185959,1
1.48199999999995,0.177739799188208,-0.302255317850276,0.856689453324464,0.0758666992364141,0.348704489272744,-0.777189130912264,-0.0375675430886429,0,0,-0.812387481754817,-0.833090820475387,1
1.48299999999995,0.259285256508072,-0.264168218024232,0.880676269736298,0.0519409179808434,0.341807306131169,-0.780471508049215,-0.038194603936265,0,0,-0.81494508839948,-0.834783622688977,1
1.48399999999995,0.211432233649709,-0.223639637440107,0.90490722677319,0.0278930664127444,0.355479598376415,-0.783830968859385,-0.0387927607311757,0,0,-0.817664256129327,-0.836426399716107,1
1.48499999999995,0.234382152775658,-0.253425702688681,0.927307129122156,0.00390625000090949,0.352977080599384,-0.78720262498437,-0.0392940355420504,0,0,-0.820752086515815,-0.838107008314397,1
1.48599999999995,0.247077852717673,-0.303720206305124,0.95129394553399,0.981994629134888,0.360850856044191,-0.790536117191597,-0.0398813621617949,0,0,-0.821946389366499,-0.839763626807613,1
1.48699999999995,0.348643452253792,-0.361827448347423,0.975341797102089,0.958312988504375,0.357249671926023,-0.793846071159191,-0.0404102705098788,0,0,-0.822807223982895,-0.839010532752868,1
1.48799999999995,0.169927060762352,-0.32959990234077,0.99926757835766,0.934814453342653,0.365184484389782,-0.797146078545121,-0.0409736415243987,0,0,-0.825401316471624,-0.837974866156898,1
1.48899999999995,0.119144260994293,-0.366222113711966,0.0233764648491928,0.911560058805989,0.374034852137822,-0.800435800837006,-0.0414706536342255,0,0,-0.827773280460633,-0.838722001395237,1
1.48999999999995,0.228522598956267,-0.400402844325083,0.0466308593858571,0.887817383019211,0.390881069368572,-0.803753395497465,-0.0420046572773605,0,0,-0.8300874302235,-0.838981767115485,1
1.49099999999995,0.167973876155889,-0.397961363567003,0.0700073242350499,0.864624023638811,0.378429517502365,-0.807188981985216,-0.0425811997139684,0,0,-0.831567708790687,-0.839523817508212,1
1.49199999999995,0.182134464552751,-0.457045197912534,0.0927124023653363,0.841003418164561,0.382763145847957,-0.810729555759568,-0.0432663526451122,0,0,-0.832166710263148,-0.839968483900451,1
1.49299999999995,0.208014160588397,-0.454115421002838,0.114807128932981,0.819335937690767,0.397961363567003,-0.814359019165069,-0.0438014036561527,0,0,-0.832117558323305,-0.840236868506994,1
1.49399999999995,0.243659779656362,-0.392590105899228,0.136962890656889,0.79589843768531,0.3917355876339,-0.818090462145085,-0.0443400948859656,0,0,-0.830708476954622,-0.838861711499291,1
1.49499999999995,0.17627491073336,-0.312021240882595,0.159057617224533,0.770568847835662,0.401989806817835,-0.821911847923615,-0.0449756061596282,0,0,-0.828799137247238,-0.83738063226125,1
1.49599999999995,0.161626026184881,-0.314462721640675,0.181091308635914,0.748901367361867,0.387401959288308,-0.825789119918514,-0.0455176608364176,0,0,-0.827007155253088,-0.839954849086051,1
1.49699999999995,0.219244972075564,-0.314951017792291,0.204101562547521,0.723876953293541,0.405835139011811,-0.829696842063759,-0.0461138180889996,0,0,-0.825180708870913,-0.840444808963921,1
1.49799999999995,0.193365276039918,-0.306161687063204,0.224243164114711,0.702758789226124,0.414319284646138,-0.833652868591243,-0.0465470983357942,0,0,-0.824457368314176,-0.840575421319581,1
1.49899999999995,0.143070772423475,-0.32959990234077,0.246154785213562,0.679809570470781,0.404919583727531,-0.837625878257089,-0.0471116344510194,0,0,-0.821765419476935,-0.840138880863248,1
1.49999999999995,0.143070772423475,-0.325205236976226,0.268371582093735,0.656860351715437,0.409863582262642,-0.841605791635508,-0.047713642345217,0,0,-0.818041724177518,-0.837476124945622,1
1.50099999999995,0.142094180120243,-0.303231910153508,0.290100097723794,0.634277343897679,0.430860316782128,-0.845634282582999,-0.0481970108318902,0,0,-0.816779359908258,-0.836945801217262,1
1.50199999999995,0.129886776329844,-0.366710409863582,0.312133789135174,0.611267089986072,0.431287575914792,-0.849730582212559,-0.04869251451728,0,0,-0.815429532321058,-0.836085218327126,1
1.50299999999995,0.144535660878323,-0.355479598376415,0.334228515702819,0.590087890762391,0.439039277321696,-0.853885478447871,-0.0493374046760493,0,0,-0.813990588398323,-0.835369983741972,1
1.50399999999995,0.198248237556078,-0.362315744499039,0.356262207114199,0.567199707163311,0.439405499435408,-0.858119358239707,-0.0499454485609322,0,0,-0.813042542649756,-0.833185613911771,1
1.50499999999995,0.203619495223853,-0.426770836512345,0.377136230556559,0.544006347782911,0.446974089785455,-0.862435601784301,-0.0505819333455967,0,0,-0.812158953494574,-0.831008880896315,1
1.50599999999994,0.169927060762352,-0.417981505783258,0.399841308686845,0.521118164183832,0.45204016235847,-0.866799553719404,-0.0511815752144888,0,0,-0.810014235567524,-0.831151352230218,1
1.50699999999994,0.187505722220527,-0.390636921292764,0.422424316504603,0.498352050897282,0.45753349406415,-0.871194810158505,-0.0518086115960468,0,0,-0.808740298666474,-0.831298535156979,1
1.50799999999994,0.139164403210547,-0.384777367473373,0.444946289166097,0.475463867298203,0.459608752708518,-0.875644165009914,-0.0524398057904922,0,0,-0.80940404349547,-0.830984478788859,1
1.50899999999994,0.111819818720054,-0.410168767357402,0.468017578233969,0.452758789167916,0.447950682088687,-0.880144458032025,-0.0530785699245532,0,0,-0.809834803402176,-0.830695204603677,1
1.50999999999994,0.146488845484787,-0.369640186773278,0.490661621207991,0.432006836038084,0.454054383983886,-0.884701114216891,-0.0536950414063624,0,0,-0.810747769731118,-0.83033739584607,1
1.51099999999994,0.13037507248146,-0.337900936918241,0.513244629025749,0.409545898532855,0.457106234931486,-0.889345290994935,-0.0541725483233184,0,0,-0.811723327891056,-0.827675108661249,1
1.51199999999994,0.17627491073336,-0.339365825373089,0.535400390749658,0.387207031340154,0.466689046906949,-0.89405681808487,-0.0546725293074952,0,0,-0.812119126495513,-0.824918940863347,1
1.51299999999994,0.136722922452467,-0.349620044557024,0.557495117317302,0.364990234459981,0.481643116550188,-0.898812462322971,-0.0551673339157692,0,0,-0.811975646060657,-0.824061787740366,1
1.51399999999994,0.180181279946287,-0.331064790795618,0.579345703259889,0.342590332111016,0.47315897091586,-0.903588967102586,-0.055713437470915,0,0,-0.811343492364507,-0.823023705385123,1
1.51499999999994,0.164555803094577,-0.284188360240486,0.601135254046213,0.32019042976205,0.476943266090884,-0.908387364339997,-0.0563537962713076,0,0,-0.810423364157604,-0.822118779618357,1
1.51599999999994,0.139164403210547,-0.312509537034211,0.622314453269894,0.299682617257275,0.498123111667226,-0.913208627806751,-0.0568809775124226,0,0,-0.809216040181633,-0.821454268932067,1
1.51699999999994,0.144047364726707,-0.356944486831263,0.640991211086742,0.27728271490831,0.4789574877163,-0.918014725127108,-0.0574075705404877,0,0,-0.807387151008733,-0.818813783536916,1
1.51799999999994,0.197271645252846,-0.394054994354076,0.662231445466688,0.25524902349693,0.491958372753075,-0.922822512365333,-0.0580831709422713,0,0,-0.802297283617406,-0.816331183860472,1
1.51899999999994,0.156743064668722,-0.427259132663961,0.687805175941392,0.22814941411562,0.497390667439802,-0.92766936121807,-0.0585515452442385,0,0,-0.797568341548797,-0.815636290684265,1
1.51999999999994,0.166508987701041,-0.446302682576983,0.708374023602431,0.206481933641825,0.49977111117893,-0.932531311760686,-0.0591022661167338,0,0,-0.800614815067568,-0.820092650392604,1
1.52099999999994,0.194830164494766,-0.445326090273751,0.729125976732263,0.186645507855957,0.506912442396313,-0.937418807405882,-0.0596650884496692,0,0,-0.802754665251256,-0.823886834835549,1
1.52199999999994,0.108401745658742,-0.410168767357402,0.750000000174623,0.165161132850955,0.501174962614826,-0.942352204024084,-0.0602130135300264,0,0,-0.799553083338716,-0.819596123592166,1
1.52299999999994,0.127445295571764,-0.399426252021851,0.770996093929512,0.143615722689688,0.524430066835536,-0.947315744332781,-0.0607879092148913,0,0,-0.796872879253015,-0.815364600864441,1
1.52399999999994,0.201178014465773,-0.343760490737632,0.791870117371872,0.12219238284095,0.516251106295968,-0.952328731530822,-0.0612773550295856,0,0,-0.794640399036648,-0.813260916179736,1
1.52499999999994,0.19434186834315,-0.333017975402081,0.813354492376874,0.100646972679684,0.527237769707328,-0.957403035643725,-0.061935984328218,0,0,-0.792560314319508,-0.81123571390178,1
1.52599999999994,0.105960264900662,-0.337412640766625,0.829711914255682,0.0789184570496246,0.523514511551256,-0.962491811196035,-0.0624829119338953,0,0,-0.791133389175782,-0.809331790913097,1
1.52699999999994,0.181157872249519,-0.279305398724326,0.85461425801148,0.0570678711070371,0.537858211004975,-0.967544419152121,-0.0630899331456135,0,0,-0.784909021430954,-0.807878785512042,1
1.52799999999994,0.185552537614063,-0.248054445020905,0.876525879110332,0.037048339852376,0.536027100436415,-0.972611674833365,-0.0636268032956283,0,0,-0.782773189780044,-0.806854231013816,1
1.52899999999994,0.134769737846004,-0.275887325663015,0.898254394740391,0.0155639648473738,0.535477767265847,-0.977679267730941,-0.0642532611716776,0,0,-0.786791953318926,-0.804054587691114,1
1.52999999999994,0.179204687643056,-0.300790429395428,0.920288086151771,0.993652343981353,0.550737022003845,-0.982686519796327,-0.0648246145250031,0,0,-0.787120390548498,-0.80101906962716,1
1.53099999999994,0.205572679830317,-0.322763756218146,0.942321777563151,0.972290039288879,0.552629169591357,-0.987658412684283,-0.0653553457843302,0,0,-0.78757660925596,-0.800232204859024,1
1.53199999999994,0.168462172307505,-0.417981505783258,0.964355468974532,0.950927734596405,0.562944425794244,-0.992615766154596,-0.0659839219943196,0,0,-0.788354587556532,-0.799380356079094,1
1.53299999999994,0.10498367259743,-0.489272743919187,0.986206054917119,0.929565429903931,0.559465315713981,-0.997543788617917,-0.0665892713768556,0,0,-0.789096859026554,-0.797997482546121,1
1.53399999999994,0.120609149449141,-0.468764305551317,0.00799560547061162,0.910095215055648,0.566057313760796,-1.00247393019456,-0.0672452711786491,0,0,-0.789599274476275,-0.796702414052181,1
1.53499999999994,0.0712912381359294,-0.405285805841243,0.0295410156318781,0.888854980675703,0.572283089693899,-1.0074797465596,-0.0678301415716307,0,0,-0.789804775785814,-0.793436118682279,1
1.53599999999994,0.0581072420422987,-0.429212317270425,0.050354003917974,0.867675781452022,0.565691091647084,-1.01257800196996,-0.0684349383226154,0,0,-0.789679940867358,-0.790249183545826,1
1.53699999999994,0.119632557145909,-0.43946653645436,0.0717163086104478,0.846435547072076,0.572527237769707,-1.01777127101407,-0.069055260818905,0,0,-0.788498318029669,-0.789098950669907,1
1.53799999999994,0.213385418256172,-0.396984771263771,0.0922241211152226,0.825256347848395,0.583880123294778,-1.02307746025208,-0.0695799324546495,0,0,-0.787184117629808,-0.788012429373613,1
1.53899999999994,0.166020691549425,-0.334971160008545,0.112670898463733,0.803833007999657,0.582354197820978,-1.02846508425602,-0.0701304119163337,0,0,-0.785640215363749,-0.787012672038163,1
1.53999999999994,0.10498367259743,-0.279305398724326,0.131286621124318,0.782531738463447,0.590411084322642,-1.03385959272488,-0.070743910417064,0,0,-0.78320727204147,-0.786279933538637,1
1.54099999999994,0.032715842158269,-0.237311929685354,0.148193359409504,0.762878418146371,0.58760338145085,-1.03922634992548,-0.0713057424922198,0,0,-0.77887738317303,-0.785726891250162,1
1.54199999999994,0.0473647267067476,-0.261238441114536,0.171203613321111,0.74169921892269,0.597674489577929,-1.04459061920381,-0.0719015428763796,0,0,-0.77098035547602,-0.783292578435351,1
1.54299999999994,0.064943388164922,-0.311044648579363,0.190551757856866,0.720947265792859,0.601031525620289,-1.05001845101522,-0.0724357687309746,0,0,-0.768325230104952,-0.780878423163963,1
1.54399999999994,0.103030487990967,-0.36573381756035,0.210510253955263,0.700256347819291,0.608233893856624,-1.05553726180734,-0.0730230147594181,0,0,-0.768487746714,-0.779813753822921,1
1.54499999999994,0.0732444227423933,-0.369151890621662,0.230346679741132,0.679443359533195,0.611041596728416,-1.06113058860279,-0.0736022252231026,0,0,-0.765345837220366,-0.778294235162879,1
1.54599999999994,0.0839869380779443,-0.401379436628315,0.250305175839529,0.658691406403364,0.611041596728416,-1.06677420640053,-0.074206965339803,0,0,-0.762931815159897,-0.776941301206946,1
1.54699999999994,0.00927762688070315,-0.419446394238105,0.270141601625397,0.638366699367381,0.610675374614704,-1.07246833677447,-0.0747978478017114,0,0,-0.760661958202004,-0.775733960048199,1
1.54799999999994,-0.00244148075807978,-0.406262398144475,0.289916992255002,0.619323730612948,0.622150334177679,-1.0782222473677,-0.0753516040235904,0,0,-0.758522745489547,-0.774063999785395,1
1.54899999999994,0.0551774651326029,-0.410657063509018,0.30975341804087,0.596801757951454,0.632160405285806,-1.08406375692718,-0.0758674181131987,0,0,-0.756325262227081,-0.770655505048613,1
1.54999999999994,0.0122074037903989,-0.383800775170141,0.32989501960806,0.577880859509548,0.641376995147557,-1.09002611916942,-0.0764494788656514,0,0,-0.754286750084974,-0.769858170183773,1
1.55099999999994,-0.0200201422162542,-0.362315744499039,0.349792480550192,0.555358886848055,0.618427076021607,-1.0960830267564,-0.0770810294695621,0,0,-0.752790385736084,-0.768998836052745,1
1.55199999999994,0.0556657612842189,-0.313486129337443,0.370178222742439,0.536560058718678,0.624958037049471,-1.10222363289144,-0.0777521384133384,0,0,-0.751423275268858,-0.768163882041878,1
1.55299999999994,0.0351573229163488,-0.257332071901608,0.386047363371134,0.515686035276318,0.644734031189917,-1.10848195224367,-0.0781837679026941,0,0,-0.750371896414796,-0.767215838992936,1
1.55399999999994,-0.00097659230323191,-0.243659779656362,0.411193847751989,0.495239257927807,0.653218176824244,-1.11480656635341,-0.0786444273928775,0,0,-0.745056549094973,-0.764574150106011,1
1.55499999999994,0.99954222235786,-0.383312479018525,0.431579589944235,0.474670410266768,0.620258186590167,-1.12115642118958,-0.0792461673394605,0,0,-0.74525337531441,-0.76391233761137,1
1.55599999999994,0.99954222235786,-1.00003051850948,0.45208740244901,0.454650879012107,0.595355082857753,-1.12757346251989,-0.0798830414793503,0,0,-0.750283060948509,-0.76291638872523,1
1.55699999999994,-0.0117191076387829,-1.00003051850948,0.472106933703671,0.436279296976579,0.496353038117618,-1.13384486996737,-0.0801965253938524,0,0,-0.749891369068735,-0.761424763482313,1
1.55799999999994,-0.0849635303811762,-1.00003051850948,0.490478515739198,0.416931152440824,0.231391338847011,-1.1398048785266,-0.0802762075494943,0,0,-0.748934869508266,-0.757453322788397,1
1.55899999999994,-0.288094729453414,-1.00003051850948,0.509643554806161,0.397827148530126,0.0567033906064028,-1.14569826508203,-0.0794997108643921,0,0,-0.745173454666257,-0.752446242023379,1
1.55999999999994,-1.00003051850948,-1.00003051850948,0.530334472779728,0.378967285244485,-0.186834315012055,-1.15164434926937,-0.0764939888514288,0,0,-0.740055424799579,-0.747876174876115,1
1.56099999999994,-1.00003051850948,-1.00003051850948,0.544738769658082,0.362976074303262,-0.393322550126652,-1.15754523153396,-0.0721752384344322,0,0,-0.737135159294259,-0.74243140378894,1
1.56199999999994,0.598651081881161,-1.00003051850948,0.567565918100897,0.340209961016711,-0.525101474044008,-1.16344407945512,-0.0660340223135531,0,0,-0.728571242146145,-0.733280581246303,1
1.56299999999994,0.886257515182958,-1.00003051850948,0.586853027480387,0.321838378981184,-0.467116306039613,-1.16930494759033,-0.0585033830259486,0,0,-0.72234473537518,-0.728418868669777,1
1.56399999999994,0.99954222235786,-1.00003051850948,0.604187011859423,0.302001953195315,-0.3519394512772,-1.17475458503525,-0.0503129355546962,0,0,-0.721685742044692,-0.726332777042403,1
1.56499999999994,0.99954222235786,-1.00003051850948,0.623229980613857,0.282287597721975,-0.223273415326395,-1.17944983228926,-0.0431356378363919,0,0,-0.715394407499288,-0.721476099255316,1
1.56599999999994,-0.043946653645436,-0.579119235816523,0.641662597805649,0.264160156311505,-0.170842616046632,-1.18342400858836,-0.0373995385829441,0,0,-0.70959983025228,-0.718746527362107,1
1.56699999999994,-0.959990234076968,-0.133793145542772,0.660217285309969,0.240295410212198,-0.211920529801325,-1.18677623761938,-0.0331300581569471,0,0,-0.705628822651291,-0.714614723469735,1
1.56799999999994,0.391613513595996,-0.16895046845912,0.674743652500851,0.225158691458674,-0.34949797051912,-1.18978765863051,-0.0295796120509938,0,0,-0.701396396100832,-0.715252397075468,1
1.56899999999994,-1.00003051850948,0.99954222235786,0.692077636879887,0.211425781299226,-0.364146855067598,-1.19294549980265,-0.0258990787835862,0,0,-0.692933796511978,-0.712354227395444,1
1.56999999999994,0.254890591143529,0.99954222235786,0.710266113446622,0.188171386762562,-0.619708853419599,-1.19597215611594,-0.0212669751606747,0,0,-0.683446906538002,-0.698446993692315,1
1.57099999999994,0.99954222235786,0.99954222235786,0.731323242357774,0.170593261758469,-0.481154820398572,-1.19774562966786,-0.0167999710840091,0,0,-0.678108040118527,-0.693779961982953,1
1.57199999999994,0.99954222235786,-1.00003051850948,0.747863769705376,0.153198242223169,-0.366161076693014,-1.19800320594464,-0.0104164372336375,0,0,-0.676962645231113,-0.693397609179386,1
1.57299999999994,-0.0751976073488571,0.232917264320811,0.76416015642792,0.130187988311562,-0.236091189306314,-1.19701837954707,-0.00562521399908566,0,0,-0.674497717656226,-0.687090609431484,1
1.57399999999994,-0.121585741752373,0.99954222235786,0.78662109393315,0.114013671901546,-0.273873104037599,-1.19536718017594,-0.00212369344665881,0,0,-0.667409031637936,-0.687427111694009,1
1.57499999999994,-1.00003051850948,0.99954222235786,0.804077148624714,0.0925292968965437,-0.319345683156835,-1.19294289778154,3.95413552536829e-005,0,0,-0.667308664827338,-0.686569752197051,1
1.57599999999994,-1.00003051850948,-0.524918362987152,0.822692871285298,0.0745239257986015,-0.517471846675008,-1.18938318960283,0.00239168695115501,0,0,-0.668353657253079,-0.683996913219682,1
1.57699999999994,-0.2172917874691,-1.00003051850948,0.840576172070712,0.0595092773576056,-0.524735251930296,-1.18465366702997,0.00498699438249476,0,0,-0.664817153209662,-0.683207211103287,1
1.57799999999994,0.99954222235786,-1.00003051850948,0.858215332231069,0.0415649414159276,-0.402478102969451,-1.1796676840081,0.0091226278993625,0,0,-0.661662437794835,-0.675166383326062,1
1.57899999999994,0.99954222235786,-0.585955381939146,0.876037597860218,0.0252075195371191,-0.304025391399884,-1.17515140642998,0.013060859185624,0,0,-0.657828718088308,-0.667735210509381,1
1.57999999999994,0.449720755638295,-1.00003051850948,0.893859863489368,0.00750732422049794,-0.245979186376537,-1.17070189706794,0.0157005355676426,0,0,-0.654505635407751,-0.66255336830719,1
1.58099999999994,0.660664693136387,-0.262703329569384,0.912048340056103,0.989807129136707,-0.243537705618458,-1.16613628672202,0.0173279068318707,0,0,-0.65182796979457,-0.657667705355262,1
1.58199999999994,-0.36573381756035,0.658223212378308,0.929931640841517,0.972412109601407,-0.223029267250587,-1.16158950134417,0.0183539738159729,0,0,-0.649809181209393,-0.65463249998991,1
1.58299999999994,-1.00003051850948,0.80275887325663,0.944091797094814,0.958984375223281,-0.255928220465712,-1.15706390182322,0.019294580425421,0,0,-0.648021916915755,-0.651494334335853,1
1.58399999999994,-1.00003051850948,-1.00003051850948,0.966064453349929,0.937622070530807,-0.356639301736503,-1.15192632726419,0.0199997652273829,0,0,-0.641972345669292,-0.643911887789266,1
1.58499999999994,-1.00003051850948,-0.866237372966704,0.984252929916664,0.920288086151771,-0.398815881832331,-1.14567249653909,0.0209434914373677,0,0,-0.640525443151901,-0.640893355516817,1
1.58599999999994,0.99954222235786,-0.365245521408734,0.00207519531298317,0.904541015835605,-0.418836024048585,-1.13923610273816,0.022693787323302,0,0,-0.643322057192111,-0.642081946193086,1
1.58699999999994,0.99954222235786,0.85354167302469,0.0197753906296043,0.887329101769097,-0.351451155125584,-1.13353997787294,0.0246967229529222,0,0,-0.641372901530376,-0.637037114218686,1
1.58799999999994,0.99954222235786,-0.177251503036592,0.0375366211024897,0.87011718770259,-0.273079622791223,-1.12811775234779,0.0267459340396196,0,0,-0.639095823684293,-0.632249345357093,1
1.58899999999994,-0.948271126438185,-1.00003051850948,0.0548095703252613,0.85272216816729,-0.274605548265023,-1.12232500510789,0.0280870464995943,0,0,-0.637120215489873,-0.629567670287781,1
1.58999999999994,0.158696249275185,-0.697286904507584,0.0704956054851635,0.83532714863199,-0.275765251625111,-1.1161919013996,0.0286700934007192,0,0,-0.634926600186325,-0.6273716715215,1
1.59099999999994,0.99954222235786,0.530777916806543,0.0876464843954068,0.81793212909669,-0.221015045625172,-1.11038456108902,0.0292296255625355,0,0,-0.630624476419352,-0.625511792893683,1
1.59199999999994,0.321298867763298,0.812036500137333,0.104309082055536,0.800476074405125,-0.192754905850398,-1.10511257743222,0.0297639718569885,0,0,-0.626540752523115,-0.623853671548846,1
1.59299999999994,-1.00003051850948,-0.886745811334574,0.12103271487193,0.784545898620166,-0.259407330545976,-1.09978614387227,0.0297940280799207,0,0,-0.623894869193149,-0.622494620992253,1
1.59399999999994,0.0341807306131169,-0.0395519882808924,0.137207031281946,0.767272949397395,-0.265266884365368,-1.09394101223323,0.0295792286396487,0,0,-0.62089692110107,-0.619581973298354,1
1.59499999999994,-0.295907467879269,-0.696798608355968,0.153564453160755,0.74981689470583,-0.24085207678457,-1.08820205941881,0.029950971137658,0,0,-0.6174514715726,-0.616546963429041,1
1.59599999999994,0.891140476699118,-1.00003051850948,0.169860839883299,0.732666015795587,-0.222907193212683,-1.08293162611053,0.0303497340088526,0,0,-0.613855033258296,-0.615384042279282,1
1.59699999999993,0.99954222235786,0.136722922452467,0.186218261762107,0.715637207197872,-0.14905240028077,-1.07800907143041,0.0305135350232435,0,0,-0.610680793921058,-0.614230806495597,1
1.59799999999993,-0.40919217505417,-0.406262398144475,0.198242187546157,0.702636718913595,-0.169927060762352,-1.07342278586467,0.0305127625840625,0,0,-0.607844550219601,-0.612829980906678,1
1.59899999999993,-0.458998382518998,-0.518570513016144,0.219726562551159,0.678161621251647,-0.211249122592853,-1.06874641689239,0.0298770704674887,0,0,-0.600641929610958,-0.607107469767908,1
1.59999999999993,-0.78225043488876,-0.0292977690969573,0.233398437554342,0.662719726716801,-0.24390392773217,-1.06432684370425,0.0294607904184855,0,0,-0.599340109917314,-0.609706144677763,1
1.60099999999993,0.499526963103122,0.15332499160741,0.250976562558435,0.645996093900408,-0.219244972075564,-1.06061516430979,0.0294259333543477,0,0,-0.599796694021751,-0.614684485385438,1
1.60199999999993,-0.0253913998840297,-0.516129032258065,0.270751953188039,0.627990722802465,-0.182378612628559,-1.05768809197476,0.0296740168315638,0,0,-0.595991996226075,-0.610963859069403,1
1.60299999999993,-0.647968993194372,-0.886257515182958,0.287414550848169,0.611206054829808,-0.19922482985931,-1.05496476299785,0.029694506849053,0,0,-0.59912483584159,-0.610343755786806,1
1.60399999999993,0.665547654652547,-0.245124668111209,0.304626464914676,0.594299316544621,-0.167729728080081,-1.05215367734097,0.0293967501023015,0,0,-0.601112049266645,-0.6098637222043,1
1.60499999999993,0.193365276039918,-0.607440412610248,0.321044921949749,0.576354980602943,-0.13525803399762,-1.04977404077177,0.0292625376879156,0,0,-0.600231336870426,-0.608251673549581,1
1.60599999999993,-0.0947294534134953,-0.193365276039918,0.33642578132833,0.557922363411151,-0.1300698873867,-1.04753861525236,0.0288659782560261,0,0,-0.599241694626523,-0.608094790369102,1
1.60699999999993,0.245612964262825,0.115726187932981,0.356750488364312,0.540954589969701,-0.129947813348796,-1.04527071898801,0.0282151592820236,0,0,-0.596391950455401,-0.609660766747645,1
1.60799999999993,-0.834986419263283,-0.544938505203406,0.370666503992553,0.526855468872668,-0.107791375469222,-1.04332051388601,0.0275606272652546,0,0,-0.597956859443659,-0.610087029647847,1
1.60899999999993,-1.00003051850948,-0.932645649586474,0.391235351653592,0.502075195429398,-0.152226325266274,-1.04133468471419,0.0269461711737607,0,0,-0.597878933258939,-0.605834666884339,1
1.60999999999993,0.469252601702933,-0.430677205725272,0.40527343759436,0.487915039176102,-0.182256538590655,-1.03942220244799,0.0261798320337732,0,0,-0.598041113901379,-0.610269032274823,1
1.61099999999993,0.128421887874996,0.0844752342295602,0.423461914161095,0.470092773546952,-0.106021301919614,-1.03814803052397,0.0258436738629726,0,0,-0.59821860997207,-0.614392392785169,1
1.61199999999993,0.0717795342875454,-0.816919461653493,0.445495605572475,0.45208740244901,-0.115970336008789,-1.03708624149523,0.0257868225543732,0,0,-0.595883253103863,-0.610807492035071,1
1.61299999999993,-0.156254768517106,-0.455580309457686,0.46252441417019,0.435729980570201,-0.098269600512711,-1.0356212622475,0.0250781091901144,0,0,-0.602449159916881,-0.611707410652787,1
1.61399999999993,-0.238288521988586,-0.129398480178228,0.480834961049453,0.419067382910072,-0.0849024933622242,-1.0339687688841,0.024499462639847,0,0,-0.607375637355324,-0.610982725286152,1
1.61499999999993,0.131839960936308,0.0375988036744285,0.497497558709583,0.401611328218507,-0.0828882717368084,-1.03262545340971,0.0238049910607704,0,0,-0.608022581696608,-0.608899382318166,1
1.61599999999993,-0.0415051728873562,-0.217780083620716,0.515502929807525,0.381408691495054,-0.0825830866420484,-1.03180872495303,0.0230392304193609,0,0,-0.608260558783783,-0.608159006748937,1
1.61699999999993,-0.322763756218146,-0.541520432142094,0.531799316530069,0.364929199303717,-0.086733603930784,-1.03106126080038,0.0223042666232103,0,0,-0.608160805359221,-0.611302728511847,1
1.61799999999993,0.202642902920621,-0.214362010559404,0.548217773565142,0.351318359456798,-0.0729392376476333,-1.0302055538821,0.0216128581287291,0,0,-0.607668544699152,-0.613195685645658,1
1.61899999999993,-0.102053895687735,-0.11230811487167,0.564514160287686,0.334960937577989,-0.0478530228583636,-1.02971906721469,0.0210005762751197,0,0,-0.605506574905778,-0.607856127050667,1
1.61999999999993,0.166508987701041,-0.50343333231605,0.580749511853966,0.319885253980729,-0.0347300637836848,-1.02938828277809,0.0203081678566061,0,0,-0.603538060136609,-0.602771461773975,1
1.62099999999993,0.0356456190679647,-0.307138279366436,0.596679687638925,0.303466796945656,-0.0312509537034211,-1.02924954840478,0.0194435854571564,0,0,-0.601551621117704,-0.599642514293534,1
1.62199999999993,-0.121585741752373,-0.307138279366436,0.612487793111356,0.285949707097828,-0.0261848811304056,-1.02938960015694,0.018520501441912,0,0,-0.599317388083431,-0.596797842025616,1
1.62299999999993,-0.234382152775658,-0.330088198492386,0.632629394678546,0.266052246155695,-0.0305795464949492,-1.02962852725681,0.0176255047802359,0,0,-0.596772141438848,-0.596784497515524,1
1.62399999999993,0.0043946653645436,-0.463881344035157,0.649169922026147,0.248474121151602,-0.0421765800958281,-1.03009836966455,0.0167431867466218,0,0,-0.598944032111917,-0.600541246338351,1
1.62499999999993,0.152348399304178,-0.446302682576983,0.664672851717256,0.232666015679172,-0.0371715445417646,-1.03093007969202,0.0159540896224591,0,0,-0.6017548810826,-0.604113668671544,1
1.62599999999993,0.233405560472427,-0.357921079134495,0.679809570470781,0.21655273442542,-0.0195318460646382,-1.03202003130008,0.0153142786850296,0,0,-0.599366079886791,-0.603034651341297,1
1.62699999999993,0.0566423535874508,-0.302743614001892,0.695007324380569,0.202087402390802,-0.00830103457747124,-1.03315748831373,0.0146716373508469,0,0,-0.595639800922893,-0.600472299637135,1
1.62799999999993,-0.0278328806421094,-0.406750694296091,0.71038818375915,0.186340332074636,-0.0076296273689993,-1.03422963139155,0.0139177166658321,0,0,-0.591855830462464,-0.596658211226203,1
1.62899999999993,0.0917996765037996,-0.355967894528031,0.725830078293995,0.170776367227262,-0.00799584948271126,-1.0352785021338,0.0131146090650576,0,0,-0.588586570988145,-0.59269999733757,1
1.62999999999993,0.207525864436781,-0.259773552659688,0.740905761891256,0.155029296911096,-0.00152592547379986,-1.03643857690359,0.0123561897647723,0,0,-0.585783162164318,-0.59017454353008,1
1.63099999999993,0.346690267647328,-0.234870448927274,0.755187988457081,0.139465332063722,0.00775170140690329,-1.03768885777417,0.0116485719572295,0,0,-0.582831296167199,-0.587814035665474,1
1.63199999999993,0.0678731650746178,-0.428724021118809,0.770568847835662,0.123901367216348,0.0194097720267342,-1.03887637542328,0.0109297897734335,0,0,-0.578829460624758,-0.585622809130299,1
1.63299999999993,0.0781273842585528,-0.499526963103122,0.786315918151828,0.108032226587653,0.0308236945707572,-1.03986624983876,0.0101764054044657,0,0,-0.575434844281862,-0.583399966061303,1
1.63399999999993,0.075685903500473,-0.482436597796564,0.801635742374145,0.0938110351780921,0.0172124393444624,-1.04077848129975,0.00937012705219029,0,0,-0.573868726104363,-0.581678963745372,1
1.63499999999993,0.0678731650746178,-0.234870448927274,0.81750488300284,0.0778808593931331,0.0271614734336375,-1.0417858130656,0.00851637721206167,0,0,-0.572329942709237,-0.578607321951732,1
1.63599999999993,0.117679372539445,-0.330576494644002,0.833190918162742,0.0621948242332309,0.0164799951170385,-1.04288782882837,0.00783329312346681,0,0,-0.571012847410127,-0.575784679888639,1
1.63699999999993,0.0615253151036103,-0.426282540360729,0.849121093947701,0.0465087890733287,0.021301919614246,-1.04404532280937,0.00710759143394404,0,0,-0.570172620908411,-0.574719829748319,1
1.63799999999993,0.315927610095523,-0.331064790795618,0.864990234576396,0.0307617187571623,0.0424207281716361,-1.0452227913752,0.00651932117176962,0,0,-0.569442192314497,-0.573448125555772,1
1.63899999999993,0.241218298898282,-0.235847041230506,0.881042480673884,0.0148315429722032,0.0573747978148747,-1.04643971076873,0.00592655641805724,0,0,-0.568994712517158,-0.572360209378816,1
1.63999999999993,0.134769737846004,-0.241218298898282,0.897094726771371,0.999206543201396,0.0512710959196753,-1.04761287997768,0.00518946674988639,0,0,-0.568761810494742,-0.571658019354119,1
1.64099999999993,0.233405560472427,-0.249031037324137,0.913330078337651,0.984802246323042,0.0777611621448408,-1.04862783078265,0.00437012184786119,0,0,-0.568755338072239,-0.570880511194665,1
1.64199999999993,0.0390636921292764,-0.332041383098849,0.929321289278874,0.969299316631933,0.0683004242072817,-1.04955289378316,0.00365473461600275,0,0,-0.568978702490621,-0.568529930539973,1
1.64299999999993,-0.0234382152775658,-0.419934690389721,0.945373535376362,0.953857422097087,0.0626239814447462,-1.05039913052177,0.00275654756094852,0,0,-0.569148407238524,-0.5662164230776,1
1.64399999999993,0.19922482985931,-0.383312479018525,0.960388183817358,0.93853759787477,0.0628681295205542,-1.05126331544567,0.00199613416605323,0,0,-0.569087216491083,-0.565144634961736,1
1.64499999999993,0.161137730033265,-0.317392498550371,0.976257324446053,0.923217773652453,0.0831324198126163,-1.05229785039253,0.00133230229571068,0,0,-0.567965008006536,-0.563932265283793,1
1.64599999999993,0.0732444227423933,-0.483413190099796,0.992126465074747,0.907897949430136,0.0736106448561052,-1.05341624868575,0.00070808114344316,0,0,-0.566744214527622,-0.562692870175183,1
1.64699999999993,0.240730002746666,-0.472670674764245,0.00811767578314004,0.893798828333104,0.0862453077791681,-1.05450902978464,-5.11417198371832e-005,0,0,-0.566539150878142,-0.561545398404002,1
1.64799999999993,0.201178014465773,-0.499526963103122,0.0238037109430422,0.878540039267051,0.0814844203009125,-1.05565332816192,-0.000680797533521704,0,0,-0.566483597818796,-0.559151370525853,1
1.64899999999993,-0.0410168767357402,-0.522965178380688,0.0395507812592086,0.863342285357263,0.0947904904324473,-1.05683969863313,-0.00137951769878691,0,0,-0.566245216591621,-0.556849104057774,1
1.64999999999993,0.179204687643056,-0.431165501876888,0.054992675794054,0.847900390822417,0.0892971587267678,-1.05802594150222,-0.00199340414618916,0,0,-0.565770009001292,-0.555889215470765,1
1.65099999999993,0.204107791375469,-0.337412640766625,0.0703125000163709,0.832763672068893,0.08661152989288,-1.05931709004519,-0.00268311820196081,0,0,-0.565071223168293,-0.555197744298702,1
1.65199999999993,0.151371807000946,-0.356944486831263,0.0855102539261594,0.817321777534048,0.108462782677694,-1.06071052905551,-0.00328226720501783,0,0,-0.563940237613054,-0.554470030523956,1
1.65299999999993,0.114749595629749,-0.337900936918241,0.100280761742098,0.801818847842938,0.106997894222846,-1.06207322743947,-0.00382068081281291,0,0,-0.562642640430596,-0.553815407065444,1
1.65399999999993,0.160161137730033,-0.323252052369762,0.115417480495623,0.78778076190217,0.116641743217261,-1.06340387966164,-0.00451313152368115,0,0,-0.560859895053358,-0.553627473489096,1
1.65499999999993,0.0961943418683432,-0.287606433301798,0.129882812530241,0.772644043148645,0.130008850367748,-1.06475873926331,-0.00514947986242442,0,0,-0.559131607191239,-0.55194336797366,1
1.65599999999993,0.131351664784692,-0.246589556566057,0.147583007846862,0.753845215019268,0.126285592211676,-1.0661232138779,-0.0058287584602801,0,0,-0.557212344740871,-0.549999529248229,1
1.65699999999993,0.200201422162542,-0.263679921872616,0.157470703161664,0.742431640797861,0.140018921475875,-1.06750228373637,-0.00658028072363252,0,0,-0.558198649564823,-0.553341171222909,1
1.65799999999993,0.166508987701041,-0.224616229743339,0.173095703165302,0.727233886888072,0.142643513290811,-1.06889591918249,-0.00725257265643657,0,0,-0.554184129445241,-0.55246344536096,1
1.65899999999993,0.0234382152775658,-0.25586718344676,0.187377929731127,0.712341308759605,0.152470473342082,-1.07023626333385,-0.0080006958425494,0,0,-0.548191600707292,-0.547764945495694,1
1.65999999999993,0.133304849391156,-0.54200872829371,0.201965332078274,0.697265625162345,0.155278176213874,-1.07150474157754,-0.00872437804856985,0,0,-0.547338671443709,-0.547136208595382,1
1.66099999999993,0.129886776329844,-0.384289071321757,0.212768554737039,0.685974121253466,0.153996398815882,-1.07281703680585,-0.00948707746633578,0,0,-0.545432437124271,-0.546431516062504,1
1.66199999999993,-0.00292977690969573,-0.394054994354076,0.229553222709697,0.667968750155524,0.148991363261818,-1.07425306429024,-0.0102259943537138,0,0,-0.539877617801827,-0.541872908698734,1
1.66299999999993,-0.0502945036164434,-0.453627124851222,0.243774414119258,0.654174804839812,0.148197882015442,-1.07575913179818,-0.0109074636143416,0,0,-0.537029004421939,-0.540752625410694,1
1.66399999999993,0.239753410443434,-0.346201971495712,0.25830078131014,0.639526367336401,0.141422772911771,-1.07737805099571,-0.0115030839949453,0,0,-0.538043880751583,-0.54239953853683,1
1.66499999999993,0.13525803399762,-0.393078402050844,0.272521972719701,0.625000000145519,0.157414471877194,-1.0791845599352,-0.0120544584707915,0,0,-0.536540057038518,-0.540300041023907,1
1.66599999999993,0.146488845484787,-0.440443128757592,0.287170410223112,0.61022949232958,0.162663655507065,-1.08104397897654,-0.0125129399166328,0,0,-0.535140684328459,-0.539134087232794,1
1.66699999999993,0.330576494644002,-0.392101809747612,0.30163574225773,0.595520019669905,0.172673726615192,-1.0828612975928,-0.0130801031082019,0,0,-0.533989474113939,-0.538202076510468,1
1.66799999999993,0.08691671498764,-0.340342417676321,0.31597900397982,0.580566406385174,0.19769890438551,-1.08470343698397,-0.0136567603574848,0,0,-0.533194285677739,-0.537546667240462,1
1.66899999999993,-0.0268562883388775,-0.346201971495712,0.330566406326966,0.56573486341297,0.185430463576159,-1.08649821487693,-0.0142832469703428,0,0,-0.532168329352991,-0.53718051195949,1
1.66999999999993,0.123538926358837,-0.358409375286111,0.34497070320532,0.55224609387858,0.191534165471358,-1.08826763085287,-0.0150855247862274,0,0,-0.531354424185869,-0.536986214039276,1
1.67099999999993,0.0122074037903989,-0.328623310037538,0.359497070396202,0.537292480593848,0.181218909268471,-1.09017947741613,-0.0157319158098096,0,0,-0.530645118871362,-0.535207092725762,1
1.67199999999993,0.118167668691061,-0.394054994354076,0.374267578212141,0.522644043090438,0.190557573168126,-1.09220039576201,-0.0163901695992389,0,0,-0.529904903565718,-0.533660433889185,1
1.67299999999993,0.168462172307505,-0.37061677907651,0.38903808602808,0.50775146496197,0.209723197119053,-1.09430289312115,-0.0169183784405685,0,0,-0.529603029706588,-0.533460116019268,1
1.67399999999993,0.180669576097903,-0.387218848231452,0.402709961031263,0.493286132927352,0.219244972075564,-1.09648288630576,-0.0174936883104399,0,0,-0.529624862475212,-0.533246982588273,1
1.67499999999993,0.0502945036164434,-0.388195440534684,0.417663574315995,0.478576660267677,0.22278511917478,-1.0986626548033,-0.0181976272697331,0,0,-0.528497222991184,-0.532889697374916,1
